date,time(local time),altitude (m),longitude,latitude,tilt (deg),roll (deg),compass (deg),gyro-x (deg/s),gyro-y (deg/sec),gyro-z (deg/s),pressure (hPa),speed (m/s),acceleration (m/s)
21/11/2018,57:25.0,63.3999939,-75.69669205,45.38399644,2.173,-3.6957,101.2651,4.869565,14.052174,-20.173914,988.2397,0.190343,-0.108032
21/11/2018,57:28.0,58.30000305,-75.69666917,45.38395448,1.5241,-1.5241,101.0849,6.330435,-3.130435,-18.991304,988.2469,0.102888,0.015433
21/11/2018,57:30.0,59.1000061,-75.69666917,45.38395448,-0.2142,-3.4293,101.489,33.391304,-3.130435,-5.634783,988.2891,0.0463,-0.036011
21/11/2018,57:32.0,59,-75.69666917,45.38396211,1.9262,-3.8546,101.4465,32.069565,-5.147826,-14.817391,988.2971,0.005144,-0.077166
21/11/2018,57:34.0,59.30000305,-75.69666917,45.38396211,2.1915,-2.8494,101.4465,16.486956,-0.13913,4.104348,988.2971,0.015433,-0.015433
21/11/2018,57:36.0,59.5,-75.69666917,45.38396211,0.4415,-3.7552,101.3099,11.130435,1.321739,-16.278261,988.2971,0.005144,-0.025722
21/11/2018,57:38.0,59.19999695,-75.69666917,45.38396211,1.8087,-2.94,101.3099,29.913044,5.565217,-16.347826,988.2971,0.010289,0.005144
21/11/2018,57:40.0,58.8999939,-75.69666917,45.38396211,0.8873,-2.6627,101.3551,22.608696,8.486957,-16,988.2791,0.005144,-0.005144
21/11/2018,57:42.0,58.80000305,-75.69666917,45.38396211,0.8316,-3.7445,101.4006,5.217391,-3.756522,-8.069565,988.2955,0.005144,0.005144
21/11/2018,57:44.0,58.80000305,-75.69666917,45.38396211,1.9489,-3.4662,101.2651,27.130434,9.947826,-7.165217,988.3247,0.005144,-0.005144
21/11/2018,57:46.0,58.8999939,-75.69666917,45.38396211,1.7008,-3.1902,101.1292,34.365219,0.765217,-10.504348,988.307,0,0
21/11/2018,57:48.0,58.8999939,-75.69666917,45.38396211,-1.086,-4.3479,101.1766,23.165216,0.069565,-10.156522,988.307,0.010289,-0.005144
21/11/2018,57:50.0,59.1000061,-75.69667679,45.38396211,1.4728,-2.5253,101.2642,32.765217,-5.982609,-9.73913,988.2989,0.005144,0
21/11/2018,57:52.0,59.1000061,-75.69667679,45.38396211,1.9458,-4.7609,101.3551,30.81739,-11.617392,-5.217391,988.2639,0,0
21/11/2018,57:54.0,59.1000061,-75.69667679,45.38396211,1.8404,-1.4314,101.5346,22.747826,-17.391304,1.321739,988.2882,0.010289,0.005144
21/11/2018,57:56.0,59.1000061,-75.69667679,45.38396211,1.0895,-4.799,101.1766,35.200001,2.921739,-7.652174,988.3119,0,-0.005144
21/11/2018,57:58.0,59.1000061,-75.69667679,45.38396211,1.5233,-2.3942,101.5346,9.6,7.930435,-15.721739,988.3216,0.005144,0
21/11/2018,58:00.0,59.1000061,-75.69667679,45.38396211,-0.8445,-2.957,101.2207,7.095652,-5.217391,-8.834783,988.3292,0.005144,0
21/11/2018,58:02.0,59.1000061,-75.69667679,45.38396211,0,-4.2679,101.4437,6.53913,-3.408696,-3.826087,988.3292,0.005144,0
21/11/2018,58:04.0,59.1000061,-75.69667679,45.38396211,4.3924,-3.0731,101.6737,47.165218,7.095652,-1.043478,988.3188,0,-0.005144
21/11/2018,58:06.0,59.1000061,-75.69667679,45.38396211,2.7547,-2.1186,101.4006,17.18261,3.895652,-16.834784,988.3273,0.005144,0.005144
21/11/2018,58:08.0,59.1000061,-75.69667679,45.38396211,2.5073,-1.0444,101.2651,24.556522,-12.452174,1.043478,988.3275,0.005144,0
21/11/2018,58:10.0,59.1000061,-75.69667679,45.38396211,3.3303,-4.4423,101.489,25.6,1.6,0.417391,988.3145,0.005144,0.005144
21/11/2018,58:12.0,59.1000061,-75.69667679,45.38396211,1.5018,-4.9402,101.3988,12.452174,0.904348,-3.060869,988.3081,0.005144,0
21/11/2018,58:14.0,59.1000061,-75.69667679,45.38396211,0.6356,-3.1796,101.5752,12.939131,1.182609,-7.234783,988.357,0.005144,0.005144
21/11/2018,58:16.0,59.1000061,-75.69667679,45.38396211,-2.6215,-1.5288,101.4854,22.4,0.973913,6.886957,988.3109,0.005144,0
21/11/2018,58:18.0,59.1000061,-75.69667679,45.38396211,1.9005,-2.3231,101.5346,23.791304,-5.913043,-17.391304,988.3337,0,0
21/11/2018,58:20.0,59.1000061,-75.69667679,45.38396211,1.3004,-2.8184,101.489,32.13913,2.086957,-13.07826,988.3656,0.005144,0
21/11/2018,58:22.0,59.1000061,-75.69667679,45.38396211,-1.1118,-4.0056,101.627,22.330435,9.113044,1.321739,988.3656,0.005144,0
21/11/2018,58:24.0,59.1000061,-75.69667679,45.38396211,0.6529,-2.6123,101.6664,27.408695,-10.086957,-18.017391,988.3395,0.005144,0
21/11/2018,58:26.0,59.1000061,-75.69667679,45.38396211,0.671,-2.0133,101.6206,20.313044,0.278261,-1.252174,988.3196,0.005144,0
21/11/2018,58:28.0,59.1000061,-75.69667679,45.38396211,1.2391,-3.0989,98.0298,20.66087,-0.347826,-0.765217,988.3141,0,-0.005144
21/11/2018,58:30.0,59.1000061,-75.69667679,45.38396211,1.5398,-5.9493,101.7125,22.191305,2.504348,-8.973913,988.2894,0,-0.005144
21/11/2018,58:32.0,59.1000061,-75.69667679,45.38396211,0.6792,-5.2146,101.3988,29.07826,-2.921739,14.121739,988.2894,0.005144,0
21/11/2018,58:34.0,59.1000061,-75.69667679,45.38396211,2.0516,-2.5078,101.8058,19.408695,-16.904348,-9.947826,988.2894,0.005144,0.005144
21/11/2018,58:36.0,59.1000061,-75.69667679,45.38396211,1.2812,-2.5631,101.489,14.121739,-3.617391,-5.078261,988.2796,0.005144,0
21/11/2018,58:38.0,59.1000061,-75.69667679,45.38396211,-0.4461,-4.6894,101.3542,5.147826,14.608696,-12.104348,988.3285,0.005144,-0.005144
21/11/2018,58:40.0,59.1000061,-75.69667679,45.38396211,0.8626,-4.1005,101.6664,23.652174,0.417391,-0.208696,988.2847,0,-0.010289
21/11/2018,58:42.0,59.1000061,-75.69667679,45.38396211,2.2003,-2.6406,101.3542,29.495651,2.852174,-22.121738,988.3307,0.005144,0
21/11/2018,58:44.0,59.1000061,-75.69667679,45.38396211,1.4889,-2.7659,101.6206,18.017391,4.313044,-5.982609,988.3307,0.005144,0
21/11/2018,58:46.0,59.1000061,-75.69667679,45.38396211,0.4223,-2.9572,101.3988,9.321739,1.252174,-8.695652,988.3961,0.005144,0
21/11/2018,58:48.0,59.1000061,-75.69667679,45.38396211,-0.6258,-3.9665,101.1792,33.739132,3.2,-6.608696,988.3815,0,-0.005144
21/11/2018,58:50.0,59.1000061,-75.69667679,45.38396211,0,-4.4148,101.3542,32.556522,-9.182609,-6.886957,988.3776,0.005144,0.005144
21/11/2018,58:52.0,59.1000061,-75.69667679,45.38396211,0.8423,-1.2635,101.7589,31.582609,0.765217,12.452174,988.3877,0.005144,0.005144
21/11/2018,58:54.0,59.1000061,-75.69667679,45.38396211,2.4933,-3.7414,101.489,25.530436,3.686956,-21.982609,989.97,0.005144,0.005144
21/11/2018,58:56.0,59.1000061,-75.69667679,45.38396211,-1.0681,-2.1365,101.4437,7.026087,11.826087,-10.504348,989.404,0,-0.005144
21/11/2018,58:58.0,59.1000061,-75.69667679,45.38396211,-0.2216,-3.5487,101.266,21.565218,-1.182609,-16.486956,989.305,0.005144,0
21/11/2018,59:00.0,59.1000061,-75.69667679,45.38396211,3.1453,-4.8261,101.2669,10.434783,-0.069565,-10.504348,989.608,0,-0.005144
21/11/2018,59:02.0,59.1000061,-75.69667679,45.38396211,2.8162,-2.5994,101.5752,30.4,-5.495652,-3.895652,989.541,0.005144,0.005144
21/11/2018,59:04.0,59.1000061,-75.69667679,45.38396211,0.8749,-4.8176,101.3099,30.052174,11.060869,-10.295652,989.24,0.005144,0.005144
21/11/2018,59:06.0,59.1000061,-75.69667679,45.38396211,1.9996,-4.4471,101.8058,14.121739,1.113043,-11.478261,989.304,0.005144,0
21/11/2018,59:08.0,59.1000061,-75.69667679,45.38396211,1.9977,-5.1109,101.5301,10.782609,-0.13913,0.13913,989.411,0.005144,0.005144
21/11/2018,59:10.0,59.1000061,-75.69667679,45.38396211,1.3505,-3.6034,98.2413,3.130435,-7.652174,1.182609,989.613,0.005144,0
21/11/2018,59:12.0,59.1000061,-75.69667679,45.38396211,1.6925,-4.2345,101.5752,20.869566,-3.617391,5.913043,989.504,0.005144,0
21/11/2018,59:14.0,59.1000061,-75.69667679,45.38396211,2.6064,-3.9112,101.5301,32.695652,-1.6,0,989.89,0.005144,0.005144
21/11/2018,59:16.0,59.1000061,-75.69667679,45.38396211,2.6016,-1.5173,101.8887,27.060869,-13.843478,-9.252174,989.704,0.005144,0
21/11/2018,59:18.0,59.1000061,-75.69667679,45.38396211,-0.216,-2.5927,101.4854,23.652174,-2.226087,-16.208696,989.154,0,0
21/11/2018,59:20.0,59.1000061,-75.69667679,45.38396211,1.6441,-4.1132,101.5301,8,-11.2,-8.834783,989.49,0.005144,0
21/11/2018,59:22.0,59.1000061,-75.69667679,45.38396211,1.8869,-2.0967,101.75,20.452173,-1.252174,-33.18261,989.183,0,0
21/11/2018,59:24.0,59.1000061,-75.69667679,45.38396211,1.5523,-5.7747,101.7959,29.913044,16.347826,-4.8,989.348,0,-0.005144
21/11/2018,59:26.0,59,-75.69666917,45.38396211,3.1057,-5.1065,101.57,39.443478,3.269565,-8.904347,989.154,0.005144,0
21/11/2018,59:28.0,59,-75.69666917,45.38396211,0,-3.9153,101.441,24.486956,-11.965218,-17.18261,989.567,0,0
21/11/2018,59:30.0,59,-75.69666917,45.38396211,-0.216,-5.6246,100.568,0,-11.756522,-6.817391,989.567,0.005144,0
21/11/2018,59:32.0,59,-75.69666917,45.38396211,3.389,-2.1174,101.4854,19.617392,-4.591304,-2.713043,989.791,0.005144,0
21/11/2018,59:34.0,59,-75.69666917,45.38396211,-2.7051,-1.8724,101.6593,18.434782,-10.365217,-20.034782,989.182,0.005144,0
21/11/2018,59:36.0,59,-75.69666917,45.38396211,0.8243,-0.8243,101.8421,15.234782,-16,-1.391304,989.581,0,0
21/11/2018,59:38.0,59,-75.69666917,45.38396211,0.4318,-3.024,101.6145,4.591304,-15.095653,-22.956522,989.581,0,0
21/11/2018,59:40.0,59,-75.69666917,45.38396211,-1.3131,-4.3808,101.397,20.034782,0.486957,-16.626087,989.821,0,-0.005144
21/11/2018,59:42.0,59,-75.69666917,45.38396211,0.8541,-2.7768,101.397,29.913044,-14.26087,-1.530435,989.724,0,0
21/11/2018,59:44.0,59,-75.69666917,45.38396211,1.9525,-4.995,97.0676,29.913044,-11.269566,-0.486957,989.724,0.005144,0
21/11/2018,59:46.0,59,-75.69666917,45.38396211,0,-5.4923,101.7959,5.217391,0.208696,-6.886957,989.1608,0.005144,0
21/11/2018,59:48.0,59,-75.69666917,45.38396211,1.9637,-3.4926,101.7045,9.878261,5.008696,5.147826,989.1122,0.005144,0
21/11/2018,59:50.0,59,-75.69666917,45.38396211,-0.2255,-5.4189,101.441,18.365217,9.252174,-18.713043,989.839,0.005144,0
21/11/2018,59:52.0,59,-75.69666917,45.38396211,2.9485,-4.4252,101.6593,25.252174,3.33913,-15.582608,989.757,0.005144,0
21/11/2018,59:54.0,59,-75.69666917,45.38396211,2.6506,-5.5287,101.441,21.495651,-15.234782,2.086957,989.1102,0,-0.005144
21/11/2018,59:56.0,59,-75.69666917,45.38396211,2.6255,-4.1592,101.6145,26.713043,-15.930435,2.782609,989.1384,0.005144,0
21/11/2018,59:58.0,59,-75.69666917,45.38396211,2.5813,-5.3838,101.6593,28.173914,-3.547826,-13.843478,989.152,0.005144,0.005144
21/11/2018,00:00.0,59,-75.69666917,45.38396211,2.2064,-3.7526,101.6593,43.547825,3.478261,-16.347826,989.1414,0,-0.005144
21/11/2018,00:02.0,59,-75.69666917,45.38396211,2.4306,-4.0531,101.9695,30.469564,0.695652,-25.669565,989.1414,0,0
21/11/2018,00:04.0,58.8999939,-75.69666917,45.38396211,1.2438,-2.9031,101.7045,34.226086,-6.052174,-0.626087,989.135,0,-0.005144
21/11/2018,00:06.0,58.8999939,-75.69666917,45.38396211,1.7114,-4.2819,101.6593,23.930435,9.947826,-16.834784,989.1573,0.005144,0.005144
21/11/2018,00:08.0,58.8999939,-75.69666917,45.38396211,1.2487,-2.498,101.6145,5.913043,-1.252174,-13.982609,989.1573,0.005144,0
21/11/2018,00:10.0,58.8999939,-75.69666917,45.38396211,3.0828,-5.968,101.9232,25.947826,-5.843478,7.513043,989.1573,0,-0.005144
21/11/2018,00:12.0,58.8999939,-75.69666917,45.38396211,1.9451,-0.4322,101.8316,25.043478,-4.173913,-5.634783,989.1031,0.005144,0
21/11/2018,00:14.0,58.8999939,-75.69666917,45.38396211,-1.0765,-1.5072,101.57,20.034782,-5.147826,-19.826086,989.1277,0.005144,0.005144
21/11/2018,00:16.0,58.8999939,-75.69666917,45.38396211,3.0293,-3.6793,101.9695,4.730435,-12.313044,-15.860869,989.1277,0,-0.005144
21/11/2018,00:18.0,58.8999939,-75.69666917,45.38396211,0.852,-4.9046,101.7863,9.043478,2.156522,-21.565218,989.174,0.005144,0
21/11/2018,00:20.0,58.8999939,-75.69666917,45.38396211,2.8027,-3.6662,101.7045,32.765217,6.886957,-10.713043,989.1873,0,-0.005144
21/11/2018,00:22.0,58.8999939,-75.69666917,45.38396211,0.6272,-5.0238,101.6593,33.808697,-15.652174,-7.791304,989.1873,0.005144,0
21/11/2018,00:24.0,58.8999939,-75.69666917,45.38396211,0.4249,-4.0401,101.9232,29.217392,-4.869565,-14.26087,989.1764,0.005144,0
21/11/2018,00:26.0,58.8999939,-75.69666917,45.38396211,3.7797,-2.8895,101.9695,24.208696,10.156522,-6.747826,989.187,0.005144,0
21/11/2018,00:28.0,58.8999939,-75.69666917,45.38396211,2.3804,-3.8971,101.7863,16.278261,-18.434782,-13.704348,989.1681,0.005144,0.005144
21/11/2018,00:30.0,58.80000305,-75.69666917,45.38396211,1.5304,0,101.7863,2.991304,-7.860869,-19.060869,989.1723,0,0
21/11/2018,00:32.0,58.80000305,-75.69666917,45.38396211,0.8367,-4.6068,102.0948,7.165217,1.878261,-14.052174,989.1844,0.005144,0.005144
21/11/2018,00:34.0,58.80000305,-75.69666917,45.38396211,2.6309,-1.9729,101.5258,24.208696,3.408696,-13.426087,989.129,0,0
21/11/2018,00:36.0,58.80000305,-75.69666917,45.38396211,0.4254,-2.9792,101.8316,18.991304,-20.799999,1.947826,989.1481,0.005144,0.005144
21/11/2018,00:38.0,58.80000305,-75.69666917,45.38396211,2.296,-2.9226,102.1415,25.321739,-7.373913,1.321739,989.1481,0,-0.005144
21/11/2018,00:40.0,58.80000305,-75.69666917,45.38396211,4.1111,-2.4653,102.0023,3.130435,1.73913,-5.913043,989.1481,0.005144,0.005144
21/11/2018,00:42.0,58.80000305,-75.69666917,45.38396211,2.4301,-2.2091,102.0483,19.547827,-8,-13.913043,989.1476,0,-0.005144
21/11/2018,00:44.0,58.80000305,-75.69666917,45.38396211,0,-2.0826,101.9566,24.278261,0.695652,-9.113044,989.159,0,-0.005144
21/11/2018,00:46.0,58.80000305,-75.69666917,45.38396211,1.8504,-3.7027,101.6145,30.539131,-9.182609,7.652174,989.1224,0.005144,0
21/11/2018,00:48.0,58.80000305,-75.69666917,45.38396211,1.706,-3.8407,100.7843,34.713043,-0.278261,-3.826087,989.1923,0.005144,0.005144
21/11/2018,00:50.0,58.80000305,-75.69666917,45.38396211,2.4981,-5.0011,101.5258,26.226088,-15.791305,-14.121739,989.1923,0,-0.005144
21/11/2018,00:52.0,58.80000305,-75.69666917,45.38396211,-0.2123,-4.4638,101.8316,31.582609,13.704348,-22.956522,989.2329,0,0
21/11/2018,00:54.0,58.69999695,-75.69666917,45.38396211,-0.4279,-4.497,101.7414,31.791304,-10.504348,18.643478,989.2329,0,-0.005144
21/11/2018,00:56.0,58.69999695,-75.69666917,45.38396211,3.1263,-5.8131,101.6968,19.408695,10.226087,-6.678261,989.1535,0.005144,0.005144
21/11/2018,00:58.0,58.69999695,-75.69666917,45.38396211,1.5462,-2.8724,101.9112,6.956522,-2.782609,-6.191304,989.1954,0.005144,-0.005144
21/11/2018,01:00.0,58.69999695,-75.69666917,45.38396211,0.2206,-4.4156,102.2648,21.426086,-0.486957,0.13913,989.1954,0.005144,0
21/11/2018,01:02.0,58.69999695,-75.69666917,45.38396211,1.4603,-3.7573,101.7414,24.834784,-4.104348,4.730435,989.2082,0,0
21/11/2018,01:04.0,58.69999695,-75.69666917,45.38396211,1.2692,-4.4463,101.6968,32.417393,-5.843478,-18.365217,989.1913,0.005144,0
21/11/2018,01:06.0,58.69999695,-75.69666917,45.38396211,1.6571,-3.5232,101.7331,22.747826,-9.321739,-7.513043,989.2478,0.005144,0.005144
21/11/2018,01:08.0,58.69999695,-75.69666917,45.38396211,1.944,-1.944,101.7414,30.191305,-5.843478,-10.504348,989.1926,0.005144,0
21/11/2018,01:10.0,58.69999695,-75.69666917,45.38396211,0.8222,-4.1145,101.6968,18.573914,5.495652,-11.826087,989.1926,0,-0.005144
21/11/2018,01:12.0,58.69999695,-75.69666917,45.38396211,-0.8695,-3.698,102.3595,25.252174,-16.765217,-17.808695,989.2589,0,-0.005144
21/11/2018,01:14.0,58.69999695,-75.69666917,45.38396211,2.4301,-2.2091,101.6968,30.81739,-17.043478,-7.791304,989.2589,0.005144,0
21/11/2018,01:16.0,58.6000061,-75.69666917,45.38396211,1.094,-4.5993,101.7414,25.043478,3.408696,-10.156522,989.2229,0,-0.005144
21/11/2018,01:18.0,58.6000061,-75.69666917,45.38396211,2.9885,-5.3419,101.6968,0.278261,-1.878261,-3.060869,989.2227,0.005144,0
21/11/2018,01:20.0,58.6000061,-75.69666917,45.38396211,0.8062,-2.4193,101.8662,17.878262,-12.730434,-17.391304,989.2227,0,-0.005144
21/11/2018,01:22.0,58.6000061,-75.69666917,45.38396211,-1.5164,-3.2508,102.0483,21.356522,-12.452174,-4.93913,989.2412,0,0
21/11/2018,01:24.0,58.6000061,-75.69666917,45.38396211,-0.2088,-3.3419,101.6968,32.904346,-6.052174,14.121739,989.2412,0,-0.010289
21/11/2018,01:26.0,58.6000061,-75.69666917,45.38396211,0.6356,-3.1796,102.0023,24.695652,-14.53913,-2.156522,989.2361,0.005144,0
21/11/2018,01:28.0,58.6000061,-75.69666917,45.38396211,0.2082,-5.4206,101.9566,37.495651,-5.217391,7.791304,989.2245,0.005144,0.005144
21/11/2018,01:30.0,58.6000061,-75.69666917,45.38396211,2.3804,-3.8971,101.7414,1.669565,-10.713043,-17.113043,989.2621,0.005144,0
21/11/2018,01:32.0,58.6000061,-75.69666917,45.38396211,0.2088,-3.3419,101.7414,29.913044,5.356522,-20.730434,989.3061,0.005144,0
21/11/2018,01:34.0,58.6000061,-75.69666917,45.38396211,2.5247,-1.8933,102.0483,17.321739,-6.330435,-11.060869,989.2287,0,-0.005144
21/11/2018,01:36.0,58.6000061,-75.69666917,45.38396211,1.9554,-3.913,101.6968,34.365219,-7.930435,-8.556521,989.2287,0,-0.005144
21/11/2018,01:38.0,58.5,-75.69666917,45.38396211,2.5693,-3.2122,102.1253,44.452175,-17.73913,-10.086957,989.2615,0,-0.005144
21/11/2018,01:40.0,58.5,-75.69666917,45.38396211,0.6608,-5.2938,102.0483,21.773912,-5.634783,0.695652,989.2741,0.010289,0.010289
21/11/2018,01:42.0,58.5,-75.69666917,45.38396211,1.2006,-2.602,102.386,23.026087,-13.426087,-7.791304,989.2715,0,-0.005144
21/11/2018,01:44.0,58.5,-75.69666917,45.38396211,1.4928,-3.8411,101.482,22.4,-10.713043,-16.834784,989.2959,0,0
21/11/2018,01:46.0,58.5,-75.69666917,45.38396211,0.6365,-1.0608,101.8215,40.695652,10.365217,9.321739,989.2811,0,0
21/11/2018,01:48.0,58.5,-75.69666917,45.38396211,0.415,-5.1943,101.8662,0.278261,4.66087,-7.165217,989.3048,0.005144,0
21/11/2018,01:50.0,58.5,-75.69666917,45.38396211,3.3037,-2.0641,102.0023,33.18261,-8.486957,-4.591304,989.2718,0,0
21/11/2018,01:52.0,58.5,-75.69666917,45.38396211,2.2408,-5.0983,102.1253,33.669567,1.947826,-5.773913,989.2718,0.005144,0
21/11/2018,01:54.0,58.5,-75.69666917,45.38396211,2.2853,-3.887,102.2648,9.73913,-13.913043,0.626087,989.2718,0.005144,0.005144
21/11/2018,01:56.0,58.5,-75.69666917,45.38396211,1.2853,-3.2147,101.8215,31.165216,-5.565217,-15.582608,989.2696,0,-0.005144
21/11/2018,01:58.0,58.5,-75.69666917,45.38396211,-0.4306,-1.5074,102.1253,32.13913,-0.834783,3.895652,989.2207,0,0
21/11/2018,02:00.0,58.5,-75.69666917,45.38396211,1.4743,-4.8495,102.2179,9.252174,-1.73913,10.782609,989.2554,0.010289,0.005144
21/11/2018,02:02.0,58.3999939,-75.69666917,45.38396211,0.8738,-2.6221,102.1253,27.269566,0.208696,6.747826,989.2921,0.005144,0.005144
21/11/2018,02:04.0,58.3999939,-75.69666917,45.38396211,0.8102,-4.4604,102.2648,26.92174,-12.243478,-8.347826,989.2702,0.005144,0
21/11/2018,02:06.0,58.3999939,-75.69666917,45.38396211,1.4958,-5.1346,98.4694,26.643478,-3.33913,3.269565,989.2489,0.005144,0
21/11/2018,02:08.0,58.3999939,-75.69666917,45.38396211,3.1318,-1.8785,102.4808,44.869564,4.66087,-13.704348,989.2537,0.005144,0.005144
21/11/2018,02:10.0,58.3999939,-75.69666917,45.38396211,3.0051,-4.08,101.565,39.791306,-9.252174,-2.643478,989.2547,0.005144,0
21/11/2018,02:12.0,58.3999939,-75.69666917,45.38396211,3.0269,-4.3263,102.0341,32.765217,-10.017391,3.617391,989.236,0,0
21/11/2018,02:14.0,58.3999939,-75.69666917,45.38396211,4.289,-4.0742,102.4332,2.017391,-6.956522,-3.478261,989.256,0.005144,0
21/11/2018,02:16.0,58.3999939,-75.69666917,45.38396211,2.5603,-2.9874,102.3391,20.939131,-1.182609,-0.347826,989.256,0,-0.010289
21/11/2018,02:18.0,58.3999939,-75.69666917,45.38396211,1.7657,-6.191,102.1253,24.486956,-3.33913,10.295652,989.2815,0.005144,0.005144
21/11/2018,02:20.0,58.3999939,-75.69666917,45.38396211,3.5744,-1.8914,101.7331,19.686956,2.921739,-6.330435,989.275,0,-0.005144
21/11/2018,02:22.0,58.3999939,-75.69666917,45.38396211,1.889,-4.6216,102.0795,21.356522,-9.947826,1.878261,989.2619,0.005144,0.005144
21/11/2018,02:24.0,58.30000305,-75.69666917,45.38396211,0.8865,-3.5483,102.1715,30.4,-12.313044,-1.46087,989.2644,0.005144,0.005144
21/11/2018,02:26.0,58.30000305,-75.69666917,45.38396211,2.4577,-3.688,102.0795,8.904347,0.556522,-26.295652,989.2788,0,0
21/11/2018,02:28.0,58.30000305,-75.69666917,45.38396211,0.6526,-3.0469,102.0795,4.66087,10.713043,17.252174,989.2806,0,-0.005144
21/11/2018,02:30.0,58.30000305,-75.69666917,45.38396211,-16.764,-53.0091,101.0515,-11.617392,-47.165218,15.304348,989.2212,0,0
21/11/2018,02:32.0,57.8999939,-75.69666917,45.38396211,-24.0392,10.5861,101.6145,2.852174,14.886956,83.269562,989.2858,0.005144,0
21/11/2018,02:34.0,57.5,-75.69666917,45.38396211,-78.2295,-168.4154,90.7813,505.878265,563.617371,37.286957,989.2809,0.005144,0
21/11/2018,02:36.0,57.5,-75.69666917,45.38396211,-15.3652,105.3657,82.1139,-75.130432,47.095654,57.530434,989.2203,0.252076,0.149188
21/11/2018,02:38.0,58.8999939,-75.69666154,45.38396211,3.0248,-52.4738,79.9817,192.278259,23.026087,-117.286957,989.2203,0.241787,-0.005144
21/11/2018,02:40.0,63,-75.69665391,45.38396211,4.5026,23.7802,78.2016,507.756531,114.017395,-80.695656,989.2203,0.354964,0.12861
21/11/2018,02:42.0,67.5,-75.69663102,45.383985,30.2584,37.6885,104.2233,-67.269562,38.678261,-163.060867,988.2285,3.657668,2.001172
21/11/2018,02:44.0,73.6000061,-75.69656998,45.38402696,-19.922,-67.8084,105.7554,116.521736,-197.565216,-90.08696,987.1695,2.150359,-1.497021
21/11/2018,02:46.0,81.1000061,-75.69654709,45.38402696,22.1551,-13.4905,105.225,74.921738,-27.200001,-86.81739,986.1767,0.46814,-0.390974
21/11/2018,02:48.0,88.80000305,-75.69653947,45.38402696,-2.4874,56.3542,103.5762,350.469574,296.556519,13.217391,985.191,0.12861,-0.118321
21/11/2018,02:50.0,96.3999939,-75.69653947,45.38402696,-3.2225,34.6499,103.3842,-230.678268,-242.434784,-38.886955,984.2309,0.133754,0.005144
21/11/2018,02:52.0,104.1000061,-75.69653184,45.38402696,-11.3895,-37.0352,102.1615,392.06958,-108.521736,92.660866,983.258,0.920848,0.370397
21/11/2018,02:54.0,111.6000061,-75.69650132,45.38404222,19.5819,20.6698,106.53,-30.4,-185.321732,-95.304344,982.523,1.862273,0.354964
21/11/2018,02:56.0,118.1000061,-75.69644791,45.38406129,24.2192,5.1964,114.0561,77.495651,47.582607,-315.89566,981.2868,2.109204,-0.010289
21/11/2018,02:58.0,120.199997,-75.69640977,45.38407655,50.7938,-31.9203,131.465,220.800003,-5.078261,118.330437,981.1527,1.522742,-0.421841
21/11/2018,03:00.0,117.3000031,-75.69638688,45.38407655,-3.0824,-18.3737,132.8511,107.617393,101.634781,12.313044,981.3416,0.653339,-0.483574
21/11/2018,03:02.0,116.699997,-75.69637925,45.38407655,-20.3552,48.7161,127.3172,-783.165222,-357.913055,-70.81739,981.3416,0.226354,-0.329242
21/11/2018,03:04.0,116.699997,-75.69637162,45.38409181,-40.0536,-155.8924,124.7932,-39.582607,-104.695656,92.382607,981.3416,2.459023,2.073193
21/11/2018,03:06.0,116.3000031,-75.69631058,45.38416429,27.7334,18.1388,125.368,-38.191303,-223.513046,-98.643478,981.3416,6.456222,1.702797
21/11/2018,03:08.0,115.6000061,-75.69623429,45.38427873,21.9283,-2.2179,126.9836,-120.13913,451.82608,356.313049,981.2942,8.416239,0.735649
21/11/2018,03:10.0,115,-75.69611985,45.38441606,-11.376,-61.4789,128.3581,-277.773926,-258.643463,64.13913,981.2725,9.064433,0.200632
21/11/2018,03:12.0,114.5,-75.69599778,45.38456483,-82.5754,5.4759,121.6592,-275.339142,-20.52174,-37.843479,981.2987,9.064433,-0.08231
21/11/2018,03:14.0,114,-75.69584519,45.38465257,-18.5838,165.369,126.5066,194.782608,-272.765228,-40.486958,981.3904,6.965518,-0.637905
21/11/2018,03:16.0,113.3999939,-75.69566971,45.3846602,9.6448,3.4225,125.6536,246.678268,-425.113037,-85.704346,981.3773,7.443947,0.33953
21/11/2018,03:18.0,112.8999939,-75.69547135,45.38461442,19.8886,10.6724,125.0459,294.052185,-83.686958,-79.582611,981.4059,8.53456,0.416697
21/11/2018,03:20.0,112.3000031,-75.69527299,45.38454957,-22.3595,47.0739,127.0747,137.252167,-382.260864,-16.278261,981.4047,9.136455,0.277798
21/11/2018,03:22.0,111.8000031,-75.69505936,45.38446565,5.5983,33.2245,127.8266,209.600006,-337.113037,-112.069565,981.3348,9.301075,0.025722
21/11/2018,03:24.0,111.199997,-75.69483811,45.38439317,-14.3336,147.743,128.6163,128.486954,280.278259,-120.486954,982.25,9.285642,-0.030867
21/11/2018,03:26.0,110.699997,-75.69462449,45.38431306,5.5009,-106.1588,128.3554,229.147827,175.652176,139.895645,981.3704,9.254775,-0.005145
21/11/2018,03:28.0,110.3000031,-75.69441849,45.38424058,-1.8211,45.027,126.6631,132.730438,-300.03479,-36.104347,981.3976,9.223909,-0.020577
21/11/2018,03:30.0,110,-75.6942125,45.38415666,24.0688,-27.3106,124.5471,-208.556519,-551.373901,27.33913,982.145,8.786635,-0.123465
21/11/2018,03:32.0,109.699997,-75.69401414,45.38408418,0.9112,47.7462,124.2065,32.626087,-231.095657,82.226089,982.159,8.750625,-0.010289
21/11/2018,03:34.0,109.5,-75.69381577,45.3840117,11.3437,-11.4805,123.4826,-389.008698,-286.330444,-240.556519,982.311,8.740335,-0.005145
21/11/2018,03:36.0,109.3000031,-75.69360978,45.38393922,17.6546,-42.3613,122.9844,156.382614,169.113037,121.808693,982.614,8.766058,0.015434
21/11/2018,03:38.0,109.1000061,-75.69340378,45.38387437,-13.8645,67.2906,123.4602,-33.878262,450.643463,125.078262,982.624,8.910101,0.144043
21/11/2018,03:40.0,108.8999939,-75.69319779,45.38379808,-9.0364,69.2389,123.7423,-8.278261,-584.834778,-91.060867,982.1161,9.064433,0
21/11/2018,03:42.0,108.699997,-75.69297654,45.38373323,5.0561,44.8331,124.8179,81.18261,-150.121735,31.095652,982.86,9.079866,0.015433
21/11/2018,03:44.0,108.3999939,-75.69276292,45.38366838,3.4842,-44.8942,125.7114,-146.08696,238.05217,49.18261,982.86,9.187899,0.025723
21/11/2018,03:46.0,108.3999939,-75.69254166,45.38360353,-2.1631,68.7214,126.7217,-5.913043,-132.869568,-18.226088,982.182,9.218765,0.015434
21/11/2018,03:48.0,108.3000031,-75.69231278,45.38353868,-8.5691,44.4187,127.0175,0,-186.226089,-39.165218,982.909,9.352519,0.102888
21/11/2018,03:50.0,108.3000031,-75.69209916,45.3834662,-20.9195,-140.5973,124.2937,-19.408695,63.582607,62.469566,982.485,9.115876,-0.21092
21/11/2018,03:52.0,108.3999939,-75.69189316,45.38339372,-17.0128,124.233,123.0654,106.365219,-82.434784,-17.808695,982.485,8.894668,-0.108032
21/11/2018,03:54.0,108.6000061,-75.69167954,45.38331743,-5.6034,38.0743,121.7883,103.791306,-36.730434,-42.017391,982.32,8.889524,0
21/11/2018,03:56.0,108.8999939,-75.69147355,45.38323732,-23.5059,114.8258,121.8065,472.06958,126.330437,65.669563,982.316,8.889524,0.015434
21/11/2018,03:58.0,109.199997,-75.69126755,45.38316484,25.0506,-63.8687,122.4302,222.817398,298.643463,103.582611,982.153,8.997555,0.08231
21/11/2018,04:00.0,109.5,-75.69105393,45.38309236,-16.1884,42.8228,123.2868,130.504349,49.599998,231.513046,982.102,9.018134,0.010289
21/11/2018,04:02.0,109.6000061,-75.69083268,45.38302751,7.0467,-49.8624,124.3007,-247.930435,-486.747833,-207.026093,982.65,9.018134,-0.010288
21/11/2018,04:04.0,109.6000061,-75.69062668,45.38296266,-22.1909,-62.311,124.5471,96,-156.104355,-45.286957,982.569,9.012989,0.005145
21/11/2018,04:06.0,109.5,-75.69041306,45.38289781,38.387,-5.5793,124.1169,191.026093,182.886963,-53.70435,982.569,9.007845,0
21/11/2018,04:08.0,109.6000061,-75.69019944,45.38282914,39.7479,-169.9571,123.4885,-234.921738,199.791306,50.643478,982.569,9.095299,0.005145
21/11/2018,04:10.0,109.6000061,-75.68998582,45.38275667,-43.1046,27.7343,123.6901,97.321739,-72,-244.730438,982.88,9.115876,0.015433
21/11/2018,04:12.0,109.699997,-75.68977219,45.38269182,-32.862,56.2837,124.5544,-114.573914,11.130435,94.678261,982.1185,9.121021,0.010289
21/11/2018,04:14.0,109.8000031,-75.68955857,45.38262697,-2.5607,6.469,125.145,-187.478256,76.800003,-25.669565,982.601,9.146744,0.010289
21/11/2018,04:16.0,109.8000031,-75.68933732,45.38256212,-4.9084,-44.7346,125.0146,-146.573914,31.234783,-161.460876,982.696,9.162176,-0.005145
21/11/2018,04:18.0,109.8999939,-75.68912369,45.38249727,12.0022,34.9342,124.8409,5.286956,-410.295654,-113.252174,982.108,9.054144,0
21/11/2018,04:20.0,110,-75.6889177,45.38243242,7.6914,39.9414,124.8956,-127.165215,-31.234783,-44.452175,982.1192,9.038711,-0.005145
21/11/2018,04:22.0,110.199997,-75.68870408,45.38236757,-1.1843,-43.5064,125.151,57.18261,142.260864,129.739136,982.1308,9.054144,0
21/11/2018,04:24.0,110.3000031,-75.68849045,45.38230272,9.6884,67.8949,124.2731,50.991302,-530.573914,-182.399994,982.1559,9.043855,0
21/11/2018,04:26.0,110.3999939,-75.68827683,45.38223024,3.8958,-48.0186,124.2937,242.156525,-96.347824,-116.660866,982.1476,9.054144,0
21/11/2018,04:28.0,110.3000031,-75.68807084,45.38216539,-32.6382,29.9165,123.7408,-210.921738,179.408691,0.904348,982.1157,9.064433,-0.005144
21/11/2018,04:30.0,110.199997,-75.68785721,45.38209672,19.2992,-109.3521,124.3078,5.495652,-102.330437,68.313042,982.15,9.038711,-0.010289
21/11/2018,04:32.0,110.3000031,-75.68763596,45.38203187,-27.7094,62.2555,124.6187,-270.817383,-335.373901,-212.730438,982.1297,8.910101,-0.740794
21/11/2018,04:34.0,110.3999939,-75.68742234,45.38196702,-35.1776,154.9928,123.8453,-178.226089,-306.573914,78.95652,982.1254,8.987266,0.092598
21/11/2018,04:36.0,110.3999939,-75.68721635,45.38190217,19.4047,-109.4059,124.1488,-49.669567,-90.226089,-45.982609,982.171,9.0027,0.020578
21/11/2018,04:38.0,110.3999939,-75.68700272,45.38183732,17.9982,-40.1894,124.9847,-80.834785,256,205.982605,982.1625,9.162176,0.144043
21/11/2018,04:40.0,110.5,-75.68678147,45.38177247,1.9294,-63.6928,125.3718,215.652176,159.652176,53.982609,982.1438,9.198187,0
21/11/2018,04:42.0,110.699997,-75.68656022,45.38170762,-38.7919,-170.1338,124.8664,35.61739,-344,-138.08696,982.2176,9.162176,-0.020578
21/11/2018,04:44.0,110.8999939,-75.68635422,45.3816504,-1.2857,-5.1495,124.5821,-201.460876,-262.469574,-9.947826,982.1986,9.115876,-0.020578
21/11/2018,04:46.0,111.199997,-75.6861406,45.38159318,22.0329,-8.4984,122.2206,-237.773911,297.947815,65.18261,982.1915,9.074721,-0.015434
21/11/2018,04:48.0,111.5,-75.68592698,45.38152833,-5.2761,-51.6916,123.2161,-110.469566,-152.208694,-104,982.2188,8.951256,-0.092599
21/11/2018,04:50.0,111.699997,-75.68572098,45.38147111,10.3205,-41.4778,122.7352,98.226089,-90.295654,23.930435,982.209,8.9564,-0.005145
21/11/2018,04:52.0,112,-75.68552262,45.38141389,13.7038,-16.0809,137.051,72.695656,25.460869,-63.234783,982.1643,7.804055,-1.15749
21/11/2018,04:54.0,112.3999939,-75.68540055,45.381391,-37.9961,9.5868,138.5797,75.060867,265.600006,183.026093,982.2329,2.721388,-2.263536
21/11/2018,04:56.0,112.699997,-75.68537003,45.38139863,12.7404,44.0819,113.4481,530.226074,271.86087,381.913055,982.1296,0.020578,-1.136912
21/11/2018,04:58.0,113.1000061,-75.68537003,45.38139863,-26.7955,-57.7004,79.5698,72.556519,-347.96521,216.13913,982.1054,0.015433,0.005144
21/11/2018,05:00.0,113.199997,-75.68537003,45.381391,-3.3964,-69.2613,55.0806,76.313042,-296.278259,-81.808693,982.1102,0.025722,0.005144
21/11/2018,05:02.0,113,-75.68540055,45.38140626,-14.2176,52.7392,63.5966,139.617386,146.991302,-102.260872,982.908,3.174095,1.039169
21/11/2018,05:04.0,113,-75.68546921,45.38145585,57.7198,-32.1789,61.0178,158.817398,-370.365204,104.626083,982.944,4.16182,0.298375
21/11/2018,05:06.0,112.8000031,-75.68554551,45.38151307,-6.9361,44.6374,62.7447,-190.747833,113.460869,-149.147827,982.67,4.578516,0.185198
21/11/2018,05:08.0,112.699997,-75.68562943,45.38158555,4.1157,-44.8524,64.1648,57.113045,-458.156525,-78.052177,982.67,5.005501,0.226353
21/11/2018,05:10.0,112.5,-75.6856981,45.38165803,-26.0825,118.0207,64.5889,-159.86087,-332.243469,-162.782608,982.67,5.200988,0.010289
21/11/2018,05:12.0,112.3000031,-75.68577439,45.38174196,-34.891,40.8237,63.5699,88.973915,-514.295654,-96.834785,982.1066,5.360465,0.149188
21/11/2018,05:14.0,112.3999939,-75.68583542,45.38182969,-6.4784,-102.2535,64.7908,309.217377,-471.026093,-106.365219,982.1524,5.473642,0.087455
21/11/2018,05:16.0,112.5,-75.68590409,45.38192125,9.0512,-78.6253,66.174,133.286957,511.026093,99.269562,982.1493,5.669129,0.087455
21/11/2018,05:18.0,112.3999939,-75.68594987,45.38201661,-32.9605,140.9333,64.5024,-89.947823,241.043472,113.113045,982.1961,5.519941,-0.149188
21/11/2018,05:20.0,112.3999939,-75.68598038,45.38205858,-5.9966,-83.4737,68.9935,-451.686951,289.460876,113.669563,982.2126,5.514797,0
21/11/2018,05:22.0,112.5,-75.68605668,45.38220353,1.742,45.0295,65.5175,-60.104347,400.834778,20.034782,982.2064,5.571385,0.036011
21/11/2018,05:24.0,112.6000061,-75.68612534,45.38230272,-1.762,-79.11,64.5708,128,-201.600006,-135.791306,982.1665,5.627973,0.025722
21/11/2018,05:26.0,112.6000061,-75.68619401,45.38239045,-16.553,42.7237,63.8609,-42.852173,91.269562,3.478261,982.2042,5.86976,0.138899
21/11/2018,05:28.0,112.8000031,-75.6862703,45.38248201,-5.5273,44.7897,64.1602,154.991302,-254.191299,-101.356522,982.2153,6.065248,0.102888
21/11/2018,05:30.0,112.8000031,-75.68635422,45.38257737,2.4574,-60.7555,64.6388,-183.443481,509.008698,180.03479,982.1597,6.265879,0.164621
21/11/2018,05:32.0,112.8999939,-75.68643815,45.38267656,4.1666,-66.0359,64.8075,-129.530441,114.156525,62.886955,982.1734,6.25559,-0.010289
21/11/2018,05:34.0,113,-75.68652207,45.38277574,-11.4116,-133.766,63.7276,175.930435,218.573914,-86.052177,982.1705,6.121836,-0.123466
21/11/2018,05:36.0,113,-75.68661362,45.38286348,-10.1215,-135.4467,63.7276,200.347824,-341.356537,-54.95652,982.1707,6.09097,-0.015433
21/11/2018,05:38.0,113.199997,-75.68669755,45.38296266,-5.0103,-128.4693,61.2117,-30.81739,-625.878235,-46.678261,982.1707,5.946927,-0.154332
21/11/2018,05:40.0,113.3999939,-75.6867891,45.38304277,15.8958,42.9009,62.2013,-71.930435,-171.686951,-178.504349,982.2004,5.91606,-0.010289
21/11/2018,05:42.0,113.5,-75.68689591,45.38313051,-15.6346,52.0442,60.8431,-131.130432,155.130432,273.182617,982.1616,6.152702,0.138899
21/11/2018,05:44.0,113.699997,-75.68700272,45.38321443,-14.2312,-125.3407,60.1667,-52.591305,4.452174,-168,982.195,6.698009,0.329242
21/11/2018,05:46.0,113.8999939,-75.68712479,45.3833098,-9.1036,-132.1196,60.8759,-300.382599,426.086945,-85.078262,982.195,7.428513,0.344674
21/11/2018,05:48.0,114,-75.68724686,45.38341661,0,8.0406,61.8656,-145.043472,-575.582581,-52.730434,982.1822,7.577701,-0.010289
21/11/2018,05:50.0,114.1000061,-75.68736893,45.38352342,-5.4175,-134.8074,61.0132,224.278259,217.530441,-18.365217,982.1822,7.428513,-0.005145
21/11/2018,05:52.0,114.1000061,-75.68748337,45.38363023,-60.4233,-174.2838,63.435,181.286957,28.382608,-15.095653,982.2369,7.325625,-0.092599
21/11/2018,05:54.0,113.8999939,-75.68759019,45.38374086,-5.2229,40.9071,62.8311,48.13913,259.130432,55.930435,982.2074,7.258748,-0.030867
21/11/2018,05:56.0,114,-75.687697,45.38384767,-15.3594,-114.7166,63.5122,222.469559,-443.686951,-78.469566,982.2143,6.960373,-0.154332
21/11/2018,05:58.0,114,-75.68778855,45.38394685,-21.7071,115.6097,64.0453,-369.043488,664.765198,152.695648,982.2143,6.538532,-0.164621
21/11/2018,06:00.0,114,-75.68788773,45.38403459,6.5125,-13.4449,63.2039,-41.04348,-329.739136,-301.704346,982.2691,6.343045,0
21/11/2018,06:02.0,114.1000061,-75.68798691,45.38413377,-16.0422,42.862,62.7447,176.973907,385.113037,89.808693,982.2466,6.34819,-0.010289
21/11/2018,06:04.0,114,-75.68807847,45.38422151,-19.84,41.7426,63.7373,179.547821,414.956512,136,982.2229,6.096114,-0.154332
21/11/2018,06:06.0,114,-75.68816239,45.38431306,9.3587,-132.1039,63.2803,-236.939133,24.556522,-60.730434,982.2638,5.736006,-0.169765
21/11/2018,06:08.0,114,-75.68824631,45.3844008,-39.6967,-40.8195,63.2813,159.652176,-139.617386,36.730434,982.2797,5.473642,-0.12861
21/11/2018,06:10.0,113.8999939,-75.68832261,45.38448472,-11.3379,75.4321,64.1197,-172.521744,354.573914,31.443478,982.2645,5.453064,-0.005144
21/11/2018,06:12.0,113.8999939,-75.68839127,45.3845572,7.2856,-50.4853,62.6659,-31.930435,421.286957,45.286957,982.3037,5.458208,0.015433
21/11/2018,06:14.0,114,-75.6884752,45.38464494,-54.445,21.4243,63.2749,248.904343,251.199997,76.869568,982.3232,5.602252,0.118321
21/11/2018,06:16.0,114.1000061,-75.68855149,45.38472886,16.6665,-106.6899,62.7158,203.408691,489.182617,174.05217,982.3232,5.730862,0.102888
21/11/2018,06:18.0,114.199997,-75.68863541,45.38480897,9.0434,64.3472,62.7208,-104.695656,766.191284,-227.199997,982.2953,5.802883,-0.010289
21/11/2018,06:20.0,114.3000031,-75.68873459,45.38488908,-8.836,115.3134,62.3991,228.17392,-589.565247,-0.069565,982.3508,6.018948,0.190343
21/11/2018,06:22.0,114.3000031,-75.68884141,45.384973,-44.8983,-135.1017,62.3991,12.939131,-148.452179,-33.18261,982.2898,6.343045,0.113177
21/11/2018,06:24.0,114.3999939,-75.68894059,45.38506074,12.3377,-67.7159,64.5291,134.191299,-43.408695,-86.539131,982.3041,6.343045,-0.005145
21/11/2018,06:26.0,114.3999939,-75.6890474,45.38514848,-20.0919,-14.5632,63.2749,51.61739,-183.513046,-58.086956,982.3024,6.373912,0.010289
21/11/2018,06:28.0,114.5,-75.68915421,45.38524003,-22.9293,40.6829,63.0343,237.008698,-563.686951,-67.826088,982.2785,6.337901,0
21/11/2018,06:30.0,114.5,-75.68924576,45.38532777,18.2394,-57.3281,62.0653,207.443481,-480.486969,-81.18261,982.3331,5.885193,-0.226354
21/11/2018,06:32.0,114.3999939,-75.68933732,45.38541169,-22.322,40.9013,62.0936,-37.286957,-299.756531,-146.434784,982.2755,5.78745,-0.010289
21/11/2018,06:34.0,114.3999939,-75.6894365,45.3854918,0.5547,-98.368,64.7045,-58.086956,-355.408691,-115.965218,982.2721,5.772017,-0.010289
21/11/2018,06:36.0,114.3999939,-75.68952805,45.38557191,-14.6473,24.6384,64.7989,168.347824,55.304348,118.330437,982.2899,5.756583,-0.010289
21/11/2018,06:38.0,114.199997,-75.68960435,45.38565583,-14.3457,43.2928,65.3964,372.10434,363.200012,112.347824,982.2899,5.350176,-0.190343
21/11/2018,06:40.0,114.199997,-75.68968064,45.38572831,14.7154,34.6975,63.7498,-352.973907,-224.347824,-82.991302,982.3345,4.96949,-0.272653
21/11/2018,06:42.0,114.199997,-75.68973405,45.38580842,-20.1007,47.6739,65.5416,2.782609,251.895645,74.365219,982.3283,4.774003,-0.005145
21/11/2018,06:44.0,114.199997,-75.68980271,45.3858809,-14.5686,43.2388,64.4538,-127.513046,-438.678253,-193.252167,982.3318,4.799725,0.020578
21/11/2018,06:46.0,114.199997,-75.68987137,45.3859572,20.0502,14.7515,66.1941,290.295654,547.200012,143.721741,982.3386,4.825447,-0.005145
21/11/2018,06:48.0,114.199997,-75.68994004,45.38602968,-21.706,-165.059,65.6701,-197.008698,-373.843475,-27.895653,982.3443,4.696837,-0.030866
21/11/2018,06:50.0,114.3000031,-75.6900087,45.38610215,-11.8668,43.8419,64.7708,-341.495667,407.304352,70.81739,982.3242,4.938624,0.216065
21/11/2018,06:52.0,114.3999939,-75.69007737,45.38617463,-34.2211,161.755,65.2371,-5.286956,-262.886963,2.434783,982.3845,5.206133,0.154332
21/11/2018,06:54.0,114.5,-75.69016892,45.38624711,-9.6377,-48.5811,101.3099,88.973915,-107.060867,-178.156525,982.3863,5.494219,0.08231
21/11/2018,06:56.0,114.6000061,-75.69025284,45.38631578,5.6592,-47.8201,88.8876,-102.81739,90.573914,-9.669565,982.3863,2.855142,-2.510467
21/11/2018,06:58.0,115,-75.69025284,45.38633867,-0.3478,-129.15,88.5524,-61.913044,-92.243477,-11.269566,983.1,0.056588,-1.142057
21/11/2018,07:00.0,115.199997,-75.69025284,45.38633104,-7.6023,-68.1281,111.6087,188.03479,139.82608,161.530441,983.406,0.041155,0.005144
21/11/2018,07:02.0,115.5,-75.69023759,45.38632341,14.6552,-74.7532,150.3148,191.513046,-233.252167,154.226089,983.356,0.030866,-0.010289
21/11/2018,07:04.0,115.8000031,-75.69025284,45.38632341,-17.3743,109.3068,156.9574,265.321747,96.13913,188.521744,983.356,0.020578,-0.010289
21/11/2018,07:06.0,115.699997,-75.69025284,45.38632341,-7.0523,33.4272,149.4326,50.086956,110.052177,236.800003,982.3774,0.010289,0
21/11/2018,07:08.0,115.699997,-75.69025284,45.38632341,-14.0315,-171.3256,128.3574,485.843475,168.208694,253.426086,982.3774,0.036011,0.015433
21/11/2018,07:10.0,115.6000061,-75.69023759,45.38631578,-39.1051,47.3307,110.055,-83.895653,-286.817383,-138.573914,983.604,0.036011,0
21/11/2018,07:12.0,115.5,-75.69023759,45.38631578,-75.4301,-178.973,90.9878,-241.391312,417.321747,279.582611,983.533,0.488718,0.452707
21/11/2018,07:14.0,115.3000031,-75.69022996,45.38632341,-26.7606,-55.9208,80.1621,59.686958,80.347824,411.547821,982.3903,0.324097,-0.185198
21/11/2018,07:16.0,115.199997,-75.69023759,45.38632341,-25.2482,116.0097,129.1511,-88.765221,214.121735,196.17392,983.354,0.416696,0.159476
21/11/2018,07:18.0,115,-75.69023759,45.38633104,-12.2227,-102.9309,153.3138,83.617393,234.573914,425.739136,983.955,1.409566,0.617328
21/11/2018,07:20.0,114.6000061,-75.69027573,45.3862967,-36.8003,154.4583,130.6553,239.721741,330.573914,488.486969,983.949,2.299547,0.478429
21/11/2018,07:22.0,114.6000061,-75.69029099,45.38625856,-32.3551,-157.9529,98.4147,157.704346,132.243484,145.530441,983.1506,2.350991,-0.195487
21/11/2018,07:24.0,114.5,-75.69023759,45.38622422,12.1967,-68.5398,74.4163,-133.356522,258.921753,400.20871,983.1005,3.060918,0.72536
21/11/2018,07:26.0,114.3999939,-75.69015366,45.38625856,-23.6755,-129.1908,62.4699,-70.191307,286.260864,262.956512,983.935,4.218408,0.406408
21/11/2018,07:28.0,114.3000031,-75.69010026,45.38632341,-31.7654,-157.1997,107.5009,-178.434784,-274.226074,313.600006,983.1076,3.894311,-0.344675
21/11/2018,07:30.0,114.199997,-75.69010789,45.38636155,22.2615,-31.6681,143.2478,414.121735,-188.104355,175.721741,983.598,1.178068,-1.36841
21/11/2018,07:32.0,113.8999939,-75.69014603,45.38632341,-6.2342,-82.2654,141.8224,385.043488,-43.547825,-47.026089,983.708,4.228697,1.373555
21/11/2018,07:34.0,113.8999939,-75.69014603,45.38623948,21.2558,-55.4217,125.4555,49.669567,327.234772,160.834778,983.111,2.74711,-2.423012
21/11/2018,07:36.0,114.1000061,-75.69010789,45.38618226,17.5966,-39.3371,128.3844,249.391312,395.269562,115.895653,983.1272,4.696837,1.815973
21/11/2018,07:38.0,114.1000061,-75.69001633,45.38610215,-19.2414,-22.2242,145.4232,31.791304,-294.608704,-118.400002,983.113,5.746295,-0.586462
21/11/2018,07:40.0,114.199997,-75.68994767,45.38606019,-13.459,5.9739,137.3448,-26.086956,-76.313042,-97.113045,983.113,1.594764,-1.58962
21/11/2018,07:42.0,114.199997,-75.68992478,45.38604493,8.676,-1.4406,137.872,356.382599,83.826088,69.565216,983.2038,1.795396,0.216065
21/11/2018,07:44.0,114.199997,-75.68988663,45.38602205,63.9144,-17.853,135.1454,77.634781,265.460876,-142.956528,983.1261,2.309835,0.324097
21/11/2018,07:46.0,114.199997,-75.68983323,45.38598008,-16.7026,42.9417,137.7018,-353.460876,101.634781,-301.634796,983.82,3.863445,1.229512
21/11/2018,07:48.0,114.199997,-75.68978745,45.3859076,-1.9794,45.0218,83.3226,70.539131,-232.069565,-243.269562,983.26,5.370753,0.344674
21/11/2018,07:50.0,114.199997,-75.68978745,45.38580842,16.2639,47.0198,68.4399,-120.347824,-268.243469,-180.313049,983.229,4.45505,-0.694494
21/11/2018,07:52.0,114.199997,-75.68984086,45.38575883,-1.839,134.408,69.1511,172.03479,37.70435,108.521736,983.241,2.947741,-0.617328
21/11/2018,07:54.0,114,-75.68991715,45.38575883,-8.8908,-60.2116,64.0645,-80.278259,154.573914,91.756523,983.738,3.364438,0.416696
21/11/2018,07:56.0,113.8000031,-75.68998582,45.38580842,-11.6045,12.8552,63.3071,270.678253,112.765221,-49.530434,983.833,4.861458,0.807671
21/11/2018,07:58.0,113.699997,-75.69006211,45.38589998,2.8384,46.4183,65.3972,113.460869,291.060883,86.678261,983.1126,6.152702,0.673917
21/11/2018,08:00.0,113.5,-75.6901384,45.38600297,4.4255,52.1992,64.754,37.147827,526.260864,1.252174,983.97,6.543677,0.020578
21/11/2018,08:02.0,113.3000031,-75.69019181,45.38611741,-11.8021,-43.8012,66.7493,150.747833,-300.03479,-126.678261,983.825,6.312179,-0.025722
21/11/2018,08:04.0,113.3000031,-75.69026047,45.38622422,-12.3357,37.5565,68.7632,366.817383,274.295654,109.008698,983.841,6.497377,0.169765
21/11/2018,08:06.0,113.3999939,-75.69033677,45.38633867,-9.5252,-110.0205,67.0533,-298.295654,272.556519,-124.660866,983.1362,6.790608,0.108032
21/11/2018,08:08.0,113.3999939,-75.69043595,45.38643785,-4.8988,44.8467,68.3422,45.913044,414.260864,171.895645,983.78,7.016962,0.210921
21/11/2018,08:10.0,113.3999939,-75.69055802,45.38653322,9.2648,44.3119,66.4183,-16.486956,584.13916,169.252167,983.667,6.914073,-0.241787
21/11/2018,08:12.0,113.199997,-75.6906572,45.38662477,-6.9131,29.0023,65.9111,-58.226086,115.339134,66.713043,983.1735,5.813172,-0.390975
21/11/2018,08:14.0,113,-75.69075638,45.38669725,16.9671,-8.9253,66.4738,-28.034782,-506.156525,-164.313049,983.1673,5.339887,-0.246931
21/11/2018,08:16.0,113,-75.69084031,45.38676973,22.5484,-124.7811,66.5339,-324.591309,297.460876,223.86087,983.1573,5.200988,-0.010289
21/11/2018,08:18.0,112.8999939,-75.69092423,45.38684221,-12.7847,57.0617,66.9998,83.965218,-205.078262,-47.721741,983.1573,5.417053,0.113176
21/11/2018,08:20.0,112.8000031,-75.69101578,45.38692613,9.4827,-78.2158,68.3477,92.313042,-91.826088,-54.747826,983.1613,5.679418,0.123465
21/11/2018,08:22.0,112.8000031,-75.69110734,45.38700624,-21.2539,49.7995,68.2479,-34.782608,169.94783,147.96521,983.1753,5.838894,0.036011
21/11/2018,08:24.0,112.8999939,-75.69119889,45.38708635,-13.1281,45.1607,65.9271,180.869568,-499.96521,-93.773911,983.2082,5.864616,0.020578
21/11/2018,08:26.0,112.8999939,-75.6913057,45.38717027,-14.6427,43.2206,67.4447,-147.478256,276.730438,29.565218,983.1935,6.322468,0.231498
21/11/2018,08:28.0,113,-75.69142014,45.38725038,-4.4656,-112.2889,66.0375,-9.878261,440.06958,105.878258,983.1793,6.790608,0.324097
21/11/2018,08:30.0,113.199997,-75.69155747,45.38733049,16.5711,8.7348,67.7965,74.921738,562.295654,229.634781,983.1578,7.150716,0.144043
21/11/2018,08:32.0,113.199997,-75.6916948,45.38741441,1.0953,54.6492,66.2606,-279.652161,411.130432,246.886963,983.1286,7.15586,0.108032
21/11/2018,08:34.0,113.199997,-75.69184739,45.38749452,22.0534,-66.6377,65.9356,-277.634796,365.913055,57.808697,983.1637,6.703153,-0.200632
21/11/2018,08:36.0,113.1000061,-75.69196946,45.387567,-9.5173,79.2172,67.3591,63.095654,91.408699,-70.678261,983.1768,6.286457,-0.036011
21/11/2018,08:38.0,113.199997,-75.69209153,45.38764711,-16.1378,72.7656,67.1462,-207.234787,-525.843506,-133.426086,983.2183,6.625987,0.324097
21/11/2018,08:40.0,113.3000031,-75.69222123,45.38773103,13.6399,-105.4143,70.8156,-318.539124,396.382599,-18.504349,983.2183,6.872918,-0.041155
21/11/2018,08:42.0,113.1000061,-75.6923433,45.38780351,-14.048,43.3639,74.2836,319.582611,-241.808701,-102.469566,983.1461,5.83375,-0.565884
21/11/2018,08:44.0,112.8999939,-75.69245011,45.38786073,23.9933,-24.7927,70.6245,10.504348,-689.739136,-80.834785,983.193,4.650538,-0.535018
21/11/2018,08:46.0,112.8000031,-75.69254166,45.38789125,-8.0593,19.7953,69.8014,-107.199997,330.991302,180.939133,983.1532,4.079509,-0.185198
21/11/2018,08:48.0,112.8999939,-75.69263322,45.38793321,-9.9244,123.9808,65.5809,228.660873,-27.060869,70.95652,983.2533,4.110375,0.030866
21/11/2018,08:50.0,112.8999939,-75.69271714,45.38799043,-9.1104,44.3363,65.6276,124.800003,-215.791306,-32.347828,983.2546,4.655682,0.262365
21/11/2018,08:52.0,113,-75.6927858,45.38806291,-8.6218,22.4524,67.0778,190.05217,174.330429,71.513046,983.22,5.247288,0.262365
21/11/2018,08:54.0,113.199997,-75.69285447,45.38815446,-6.1083,-27.9396,67.6356,112,1.669565,-109.634781,983.276,5.53023,0.12861
21/11/2018,08:56.0,113.3999939,-75.6929155,45.3882422,16.5048,-33.4095,66.9398,99.339134,-430.121735,-182.747833,983.2625,5.65884,0.005145
21/11/2018,08:58.0,113.6000061,-75.6929918,45.38834138,24.3593,-24.559,67.2442,200.834778,-25.043478,-11.756522,983.2396,5.463353,-0.159477
21/11/2018,09:00.0,113.699997,-75.69306809,45.38842149,-11.235,-12.3315,67.6454,265.321747,-280.06958,1.6,983.24,5.22671,-0.138899
21/11/2018,09:02.0,113.8000031,-75.69313676,45.38849397,22.8148,-40.6763,65.8297,41.252174,203.756516,65.878258,983.2308,5.134111,-0.082311
21/11/2018,09:04.0,113.8999939,-75.69321305,45.38856645,-12.0168,75.7129,66.3798,-362.852173,-80.626083,30.608696,983.2504,5.139255,0
21/11/2018,09:06.0,114,-75.69328934,45.38864274,-8.8023,78.3413,66.8221,174.469559,-147.339127,-73.808693,983.2215,5.123822,0.020578
21/11/2018,09:08.0,114,-75.6933809,45.38872285,-11.4849,-120.4304,65.0122,200.13913,204.730438,37.286957,983.2356,5.453064,0.102888
21/11/2018,09:10.0,114,-75.69347245,45.38879533,-29.3194,52.7422,66.3335,4.452174,-443.96521,-57.04348,983.2356,5.622829,0.010289
21/11/2018,09:12.0,114,-75.69357163,45.38886781,-43.7833,26.2629,64.7723,-300.452179,130.643478,-57.18261,983.2867,5.406765,-0.17491
21/11/2018,09:14.0,114.1000061,-75.69367081,45.3889441,-2.1493,24.0277,62.491,75.130432,-512.486938,-91.965218,983.289,5.509652,0.087455
21/11/2018,09:16.0,114.199997,-75.69376237,45.38901658,6.903,47.4054,64.4528,38.330433,628.03479,150.121735,983.2245,5.663985,0.005145
21/11/2018,09:18.0,114.5,-75.69385392,45.38908906,-13.015,-122.3791,62.6249,89.669563,352.973907,47.930435,983.1892,5.396475,-0.159477
21/11/2018,09:20.0,114.8000031,-75.69394547,45.38916154,-32.6309,179.2164,65.2946,227.686951,-558.956543,-56.765217,983.2225,5.0981,-0.123465
21/11/2018,09:22.0,114.8000031,-75.69402177,45.38923402,-21.533,116.8581,64.9325,169.94783,-335.234772,-182.399994,983.1771,4.93348,-0.010289
21/11/2018,09:24.0,114.8000031,-75.69409806,45.38929887,-9.1652,112.0688,63.1281,-66.226089,10.156522,-91.826088,983.1771,4.928335,-0.010289
21/11/2018,09:26.0,114.8999939,-75.69418961,45.38936754,-0.1584,45.0558,62.193,482.504333,109.634781,-70.886955,983.2077,4.902613,-0.005145
21/11/2018,09:28.0,115,-75.69426591,45.38943239,-79.5502,-6.7281,62.0302,199.930435,-313.739136,-72.417389,983.2027,5.195844,0.17491
21/11/2018,09:30.0,115.3000031,-75.69436509,45.38950486,-3.6031,53.5534,60.5725,56.278259,-215.443481,6.608696,983.2145,5.756583,0.267509
21/11/2018,09:32.0,115.3000031,-75.69446427,45.38958497,12.9986,7.3846,64.2959,345.460876,86.469566,69.704346,983.1765,5.895482,-0.025722
21/11/2018,09:34.0,115.3999939,-75.69456345,45.38966508,4.3317,-81.7497,63.8144,29.843479,198.678268,135.930435,983.1978,5.905771,-0.020578
21/11/2018,09:36.0,115.3999939,-75.694655,45.38974901,-18.4974,42.1622,64.6121,-317.913055,-5.495652,-109.426086,983.2513,5.880049,-0.005144
21/11/2018,09:38.0,115.3000031,-75.69473893,45.38982911,-41.3706,20.5234,67.1853,285.495667,375.234772,223.513046,983.2701,5.638262,-0.108032
21/11/2018,09:40.0,115.3000031,-75.69483048,45.38990922,2.8799,-134.5076,68.8449,-393.043488,173.495651,109.356522,983.2701,5.324454,-0.164621
21/11/2018,09:42.0,115.3999939,-75.69492966,45.38997789,-7.1701,44.6088,71.4243,-31.582609,455.721741,47.86087,983.2347,5.381042,0.08231
21/11/2018,09:44.0,115.6000061,-75.6950441,45.39003129,-22.9147,-113.5259,75.8424,-421.217377,82.713043,130.295654,983.2347,5.509652,-0.010289
21/11/2018,09:46.0,115.699997,-75.6951738,45.39008088,1.1971,-62.8305,74.7449,248,29.07826,15.304348,983.2139,5.602252,-0.097743
21/11/2018,09:48.0,115.8000031,-75.69531113,45.39011522,2.6831,3.8025,79.886,60.313042,-210.295654,-129.530441,983.2482,5.170122,-0.226353
21/11/2018,09:50.0,115.8999939,-75.6954332,45.39013047,-5.4723,2.454,85.208,263.652161,-778.365234,-39.721741,983.1774,4.974635,0.036011
21/11/2018,09:52.0,116,-75.69557053,45.39013047,-9.9319,62.0165,96.509,227.547821,623.791321,85.495651,983.1986,5.231855,0.030867
21/11/2018,09:54.0,116.1000061,-75.69570023,45.39012285,-17.9816,-108.2716,101.8301,338.713043,-272.486969,-6.469565,983.2455,4.717415,-0.324097
21/11/2018,09:56.0,116.1000061,-75.69580704,45.39010759,16.525,32.3522,114.0013,482.434784,-52.591305,32.834782,983.2608,4.357307,-0.12861
21/11/2018,09:58.0,116.1000061,-75.69591385,45.39007325,22.9774,39.9431,123.4862,-175.443481,-525.773926,-154.782608,983.2462,4.285285,0.015433
21/11/2018,10:00.0,116,-75.69601304,45.39003129,-7.9406,-8.0516,130.5655,-2.226087,189.704346,120.347824,983.2017,4.460195,0.036011
21/11/2018,10:02.0,115.8999939,-75.69609696,45.38999315,9.5731,44.262,138.6782,15.513043,-134.608688,22.191305,983.2627,4.465339,0.020578
21/11/2018,10:04.0,115.6000061,-75.69618088,45.38993593,-9.6142,-68.0713,144.3129,-417.739136,-325.982605,37.147827,983.2642,4.182397,-0.190343
21/11/2018,10:06.0,115.3000031,-75.69624955,45.38987108,23.6705,-48.7189,148.3206,202.504349,154.434784,181.356522,983.2642,4.336729,0.144044
21/11/2018,10:08.0,115.1000061,-75.69629532,45.3897986,-28.2717,48.2611,147.1821,17.947826,364.660858,148.800003,983.2642,4.604238,0.154332
21/11/2018,10:10.0,114.8999939,-75.69633347,45.38971467,5.5385,-7.654,147.9769,-21.843479,-87.582611,31.443478,983.3461,4.882035,0.08231
21/11/2018,10:12.0,114.699997,-75.6963411,45.38962693,-5.8341,74.5309,142.9319,-458.573914,3.478261,193.669571,983.3417,5.561097,0.452707
21/11/2018,10:14.0,114.5,-75.69633347,45.38951249,-26.0843,-117.795,139.316,-384.13913,19.965218,18.643478,983.335,6.682575,0.591606
21/11/2018,10:16.0,114.6000061,-75.6962877,45.38939042,4.2511,-85.429,124.9694,203.547821,-2.365217,210.08696,983.2933,8.02012,0.627617
21/11/2018,10:18.0,114.8000031,-75.69618851,45.38926072,7.6568,-80.6591,119.2664,197.286957,-135.026093,-32.695652,983.4013,8.14873,-0.025722
21/11/2018,10:20.0,115.1000061,-75.6960283,45.38916154,32.9699,36.0251,120.9191,-22.26087,169.669571,14.817391,983.4013,8.416239,0.293231
21/11/2018,10:22.0,115.3000031,-75.69582993,45.38908906,35.3616,-26.4677,122.2757,-9.947826,216.13913,74.434784,983.3504,8.848368,0.205777
21/11/2018,10:24.0,115.5,-75.69562394,45.38902421,4.6715,62.6822,123.3503,143.582611,35.965218,-112.90435,983.3633,9.151888,0.123466
21/11/2018,10:26.0,115.699997,-75.69540269,45.38895936,2.8519,-44.9291,114.2387,-79.304344,137.321732,132.869568,983.3225,9.347375,0.087455
21/11/2018,10:28.0,115.8000031,-75.6951738,45.38890214,-14.7818,61.9627,102.3665,333.356537,-80.13913,82.295654,983.3225,9.028422,-0.277798
21/11/2018,10:30.0,115.8999939,-75.69494492,45.38890214,-16.4618,65.7597,103.6673,181.008698,112.695656,57.599998,983.3143,8.858656,0.092598
21/11/2018,10:32.0,116.1000061,-75.69470841,45.38895173,1.9003,45.0244,103.6066,-34.29565,243.199997,92.034782,983.3143,9.162176,0.118321
21/11/2018,10:34.0,116.1000061,-75.69448716,45.38901658,-19.4068,-68.8949,100.6244,-105.18261,324.939117,297.530426,983.3198,9.17761,0.025722
21/11/2018,10:36.0,116.199997,-75.69428116,45.38908906,-7.0283,0.2226,81.41,-52.38261,-206.886963,73.530434,983.3274,9.095299,-0.102887
21/11/2018,10:38.0,116.3000031,-75.69409806,45.38918824,-35.1582,47.0694,79.8114,50.782608,111.930435,121.18261,983.2808,8.138441,-0.617328
21/11/2018,10:40.0,116.3000031,-75.69399888,45.38931031,0.3574,-47.4005,67.4881,112.486954,-45.008698,346.852173,983.2358,7.675445,-0.108032
21/11/2018,10:42.0,116.199997,-75.6939531,45.38944001,-26.045,-59.5679,71.7108,-205.495651,-59.130436,-50.086956,983.3114,6.471655,-0.90027
21/11/2018,10:44.0,116,-75.69396073,45.38953538,17.0534,-49.5257,70.9308,-118.95652,185.391312,-175.165222,983.2714,4.362451,-0.987725
21/11/2018,10:46.0,115.8999939,-75.69400651,45.3895926,3.532,-37.5327,69.8424,114.365219,-66.434784,34.991302,983.2714,3.307849,-0.339531
21/11/2018,10:48.0,115.8000031,-75.69407517,45.38962693,19.7986,-120.5585,68.3372,39.165218,36.799999,177.391312,983.2762,2.963175,-0.190343
21/11/2018,10:50.0,115.699997,-75.69414384,45.38964982,-44.8411,-149.9084,70.9249,155.199997,-408.20871,-17.460869,983.3017,3.374726,0.277798
21/11/2018,10:52.0,115.699997,-75.69423539,45.38966508,-25.403,118.1051,72.0013,180.243484,-920.626099,162.434784,983.3051,3.575358,0.010289
21/11/2018,10:54.0,115.6000061,-75.69433457,45.38968416,12.989,-103.2597,69.7122,516.799988,383.234772,66.365219,983.3051,3.745123,0.041155
21/11/2018,10:56.0,115.3999939,-75.69441849,45.38970704,-20.0994,9.5785,73.5131,-53.982609,-374.052185,170.504349,983.3086,3.457037,-0.195487
21/11/2018,10:58.0,115.199997,-75.69449479,45.38973375,-18.9279,63.862,79.6952,114.156525,-242.295654,66.504349,983.3338,3.323282,-0.030866
21/11/2018,11:00.0,115.199997,-75.69457871,45.38974901,-12.8493,43.6359,84.1045,279.443481,193.321732,152.13913,983.3747,3.400448,0.082311
21/11/2018,11:02.0,115.3000031,-75.69467789,45.38975663,-22.7032,44.8902,97.2532,-342.956512,-16.208696,-32.834782,983.3784,3.806856,0.25722
21/11/2018,11:04.0,115.199997,-75.6947847,45.38975663,-9.4996,71.7044,106.4915,86.052177,-64.069565,47.165218,983.3739,3.791423,-0.015433
21/11/2018,11:06.0,115.3000031,-75.69487626,45.38974901,2.5417,-42.9166,117.1981,-0.834783,-214.469559,225.878265,983.3934,3.889166,0.102888
21/11/2018,11:08.0,115.3999939,-75.69497544,45.38971467,55.552,-8.1483,124.5923,131.269562,424.626099,76.521736,983.3262,3.992055,0.118321
21/11/2018,11:10.0,115.3999939,-75.69507462,45.38967653,-17.0744,54.7867,135.2178,66.852173,51.060871,108.730438,983.3686,4.485917,0.164621
21/11/2018,11:12.0,115.3000031,-75.6951738,45.38962693,-10.5368,55.9519,140.5632,294.191315,23.095652,250.643478,983.357,4.856313,0.185198
21/11/2018,11:14.0,115.1000061,-75.69526536,45.38956208,-24.5093,64.0815,137.1705,-167.304352,-373.495667,-117.356522,983.3941,4.686548,-0.025722
21/11/2018,11:16.0,115,-75.69533402,45.38949724,7.8006,-44.4722,138.7565,-175.095657,421.704346,34.643478,983.3925,4.928335,0.246931
21/11/2018,11:18.0,114.8999939,-75.69540269,45.38941331,23.8841,-40.2823,142.7532,76.034782,-356.730438,41.321739,983.3495,5.27301,0.216065
21/11/2018,11:20.0,114.699997,-75.69544846,45.38932557,-4.0451,61.753,139.7245,140.104355,341.147827,243.617386,983.3358,5.730862,0.262365
21/11/2018,11:22.0,114.699997,-75.69548661,45.38922639,17.739,-47.2564,136.7053,251.686951,470.539124,154.782608,983.3358,6.04467,0.169765
21/11/2018,11:24.0,114.6000061,-75.6955095,45.38911195,-23.1068,-44.1326,133.394,-81.599998,292.313049,139.478256,983.3558,6.847197,0.499007
21/11/2018,11:26.0,114.3999939,-75.69547135,45.38898225,9.712,43.4109,128.5546,211.895645,335.443481,173.843475,983.3693,7.680589,0.375541
21/11/2018,11:28.0,114.199997,-75.69538743,45.38884492,-15.299,39.1852,126.0134,-36.591305,-144,-19.965218,983.4046,8.447105,0.354964
21/11/2018,11:30.0,114.3000031,-75.69525773,45.38872285,-3.6541,38.9193,121.373,302.747833,110.747826,-143.930435,983.4008,8.904956,0.144043
21/11/2018,11:32.0,114.6000061,-75.69507462,45.38861604,-12.9746,-51.7963,113.4193,178.017395,-290.156525,49.808697,984.429,9.105588,0.113177
21/11/2018,11:34.0,114.8999939,-75.69485337,45.38855119,-21.0343,-113.3504,107.3135,-278.608704,53.843479,99.339134,984.472,9.08501,0
21/11/2018,11:36.0,115.1000061,-75.69460923,45.38853593,5.8137,30.9113,100.9138,135.513046,7.234783,55.791306,984.86,9.172465,0.087455
21/11/2018,11:38.0,115.5,-75.69437272,45.38857789,-23.8762,63.7838,91.8524,-13.773913,162.226089,185.460876,983.3597,9.162176,-0.108033
21/11/2018,11:40.0,115.699997,-75.69418198,45.38866563,-27.85,46.2708,85.8189,230.330429,292.730438,186.782608,983.3705,8.997555,-0.005145
21/11/2018,11:42.0,116,-75.69403702,45.38879533,7.1382,-97.1809,81.9059,-83.269562,319.095642,150.956528,983.4007,9.018134,0.020578
21/11/2018,11:44.0,116.1000061,-75.69394547,45.38895173,-11.2882,-101.2931,64.9078,-19.060869,-413.356537,-124.591301,983.4007,8.678603,-0.318952
21/11/2018,11:46.0,116,-75.69392258,45.38910432,4.1171,-44.8523,72.6195,241.669571,318.052185,146.852173,983.3536,8.195029,-0.226354
21/11/2018,11:48.0,115.699997,-75.69393784,45.38924547,7.6449,-44.493,68.57,107.617393,78.400002,11.617392,983.3206,7.351348,-0.509295
21/11/2018,11:50.0,115.6000061,-75.69398362,45.38936754,-10.6927,64.7872,69.4068,-173.356522,201.252167,141.147827,983.3427,6.250446,-0.504151
21/11/2018,11:52.0,115.3999939,-75.69405991,45.38945527,-15.8857,46.9293,71.6278,-59.686958,329.043488,217.252167,983.3369,5.35532,-0.401263
21/11/2018,11:54.0,115.3999939,-75.69414384,45.38952012,1.2671,45.042,77.1523,227.686951,191.721741,3.2,983.3369,4.557938,-0.375541
21/11/2018,11:56.0,115.5,-75.69425065,45.38954301,-10.454,-47.4872,91.2386,337.947815,197.495651,97.460869,983.3321,4.172108,-0.149188
21/11/2018,11:58.0,115.6000061,-75.69435746,45.38955446,6.3448,30.3758,112.9436,-157.217392,-196.939133,-146.991302,983.3321,4.130953,-0.036011
21/11/2018,12:00.0,115.699997,-75.69446427,45.38953538,3.4872,-113.9114,129.0412,255.373917,4.104348,-23.513044,983.2857,4.120665,0.015433
21/11/2018,12:02.0,115.5,-75.69454819,45.38949724,-15.1956,-127.5754,133.8171,-34.29565,194.08696,54.678261,983.2869,4.038354,0.020578
21/11/2018,12:04.0,115.3000031,-75.69460923,45.38943239,-16.6677,65.0255,135.7892,46.400002,-412.10434,-33.391304,983.2869,4.496205,0.308664
21/11/2018,12:06.0,115,-75.69467026,45.38934083,63.4591,-156.9818,140.8752,-70.121742,136.278259,-4.66087,983.3391,5.087812,0.288087
21/11/2018,12:08.0,114.8999939,-75.69470078,45.38924547,32.3561,-56.3283,141.6521,52.799999,-369.739136,-40.765217,983.3515,5.74115,0.360108
21/11/2018,12:10.0,114.699997,-75.69472367,45.38913865,-15.0051,52.5389,142.696,60.52174,-22.26087,5.913043,983.3776,6.307035,0.246931
21/11/2018,12:12.0,114.6000061,-75.6947313,45.38902421,5.6996,-153.3321,143.2613,207.582611,-190.399994,2.504348,983.35,6.435645,0.030867
21/11/2018,12:14.0,114.3999939,-75.6947313,45.38889451,-10.086,-22.3297,137.8321,-176,-442.086945,-109.704346,984.6,7.068405,0.293231
21/11/2018,12:16.0,114.3000031,-75.69470078,45.38876481,-0.5841,29.7432,136.6212,-94.330437,298.713043,14.191304,983.3464,7.912087,0.499007
21/11/2018,12:18.0,114.1000061,-75.69462449,45.38861604,15.4156,-45.029,131.8278,59.33913,137.043472,177.321732,983.3464,8.894668,0.38583
21/11/2018,12:20.0,114.199997,-75.69449479,45.38847871,17.7821,42.3752,123.3697,87.443481,210.017395,91.826088,984.101,9.13131,0.025722
21/11/2018,12:22.0,114.3000031,-75.69431931,45.3883719,8.3225,52.5835,113.8615,486.052185,126.400002,152.695648,984.446,9.141599,-0.015433
21/11/2018,12:24.0,114.6000061,-75.69409806,45.38832231,-31.3297,-151.4474,103.0542,-210.156525,-16.973913,96.973915,984.917,8.997555,-0.030866
21/11/2018,12:26.0,115,-75.69386155,45.38834138,-5.4039,18.0252,92.4701,-208.973907,223.652176,201.808701,984.64,9.0027,-0.015434
21/11/2018,12:28.0,115.3000031,-75.69367081,45.38842149,68.4718,-4.8007,81.9432,59.130436,225.808701,82.921738,984.155,8.596292,-0.241787
21/11/2018,12:30.0,115.6000061,-75.69353348,45.38853593,-21.8459,41.0691,72.6925,339.408691,58.226086,179.895645,983.3829,7.675445,-0.519585
21/11/2018,12:32.0,115.6000061,-75.69346482,45.38865037,-19.8478,69.9929,68.9834,-11.686956,-397.495667,-43.060871,983.3675,6.21958,-0.787093
21/11/2018,12:34.0,115.699997,-75.69344193,45.38874574,7.6481,-51.827,68.587,225.113037,338.156525,157.286957,983.3649,4.722559,-0.730505
21/11/2018,12:36.0,115.5,-75.69344956,45.38882966,6.0241,-70.1923,68.8658,433.947815,-66.573914,-2.086957,983.3968,3.724545,-0.426985
21/11/2018,12:38.0,115.3999939,-75.69347245,45.38888688,-41.7885,-133.2499,66.9243,-26.713043,-354.573914,-74.782608,983.3999,3.194672,-0.21092
21/11/2018,12:40.0,115.3000031,-75.69350297,45.3889441,8.2379,-34.3041,68.0444,50.713043,39.095654,30.330435,984.4,3.174095,0.015433
21/11/2018,12:42.0,115.199997,-75.69355637,45.38898988,-31.4054,31.0379,76.7895,-61.565216,-201.530441,37.843479,983.394,3.096929,-0.087455
21/11/2018,12:44.0,115.1000061,-75.69360978,45.38903184,12.7837,-1.7489,114.2744,-216,78.121742,30.4,984.541,2.5259,-0.344675
21/11/2018,12:46.0,115.1000061,-75.69367081,45.38903947,-57.4273,178.0553,140.8067,-40.278259,-78.81739,281.739136,984.541,2.098915,-0.113177
21/11/2018,12:48.0,114.8000031,-75.69371659,45.38901658,-36.8806,-51.1615,140.8016,239.026093,-500.452179,94.191307,983.3681,2.886008,0.524729
21/11/2018,12:50.0,114.6000061,-75.69373185,45.38895173,-57.2049,-166.3193,130.3195,-274.504333,-206.608688,-101.147827,984.356,4.732848,1.070035
21/11/2018,12:52.0,114.6000061,-75.6936937,45.38885255,14.4171,29.7405,127.994,333.982605,47.86087,-23.930435,984.1122,7.181582,1.162634
21/11/2018,12:54.0,114.5,-75.69357163,45.38873048,-23.167,-55.478,136.7159,192.626083,-4.591304,-255.165222,984.1064,8.48826,0.509295
21/11/2018,12:56.0,114.5,-75.69342667,45.38860841,-31.2918,-31.2918,141.6007,-26.573914,42.226086,118.121742,984.986,8.822646,0.020577
21/11/2018,12:58.0,114.5,-75.69331223,45.38847871,9.1865,25.7106,142.8355,216.208694,-74.573914,-363.478271,984.844,8.66317,0
21/11/2018,13:00.0,114.3999939,-75.69320542,45.38833375,-22.9869,-43.8603,146.4986,398.539124,416.765228,217.530441,984.559,8.31335,-0.349819
21/11/2018,13:02.0,114.3999939,-75.69314438,45.38819261,3.4025,-71.3967,140.4,151.026093,-124.243477,192.347824,984.664,7.79891,-0.087455
21/11/2018,13:04.0,114.3000031,-75.69309861,45.38805528,-0.1947,-124.6895,130.3141,230.956528,272,79.86087,984.804,8.179596,0.226353
21/11/2018,13:06.0,114.1000061,-75.69300706,45.38791795,22.0017,-40.9659,139.4102,-190.121735,-47.234783,86.678261,984.787,8.354505,0.025722
21/11/2018,13:08.0,114.1000061,-75.69290787,45.38778062,6.9456,-69.4348,138.9529,45.286957,68.521736,-73.321739,984.904,7.7166,-0.313808
21/11/2018,13:10.0,114.1000061,-75.69282395,45.38765855,17.8542,13.7722,146.3422,273.391296,165.982605,-76.800003,984.601,7.263893,-0.169765
21/11/2018,13:12.0,113.8999939,-75.69275529,45.38754411,-2.2958,45.0099,162.2223,298.782623,-155.547821,47.652172,984.1223,6.214435,-0.622472
21/11/2018,13:14.0,113.8999939,-75.6927324,45.38744493,-73.6289,165.2323,162.9487,-44.799999,423.165222,128.278259,984.852,4.413895,-0.967147
21/11/2018,13:16.0,113.8999939,-75.69274766,45.38738008,12.5174,-33.2375,160.1951,152.069565,155.96521,-11.895652,984.906,3.354149,-0.457852
21/11/2018,13:18.0,113.6000061,-75.69279343,45.38733049,-12.0118,-67.2061,156.1718,-43.895653,-54.330433,-31.373913,984.995,2.91173,-0.108032
21/11/2018,13:20.0,113.5,-75.69284684,45.38729234,-11.9977,75.3649,145.3566,219.617386,478.817383,196.660873,984.107,3.385015,0.30352
21/11/2018,13:22.0,113.199997,-75.69288499,45.38722368,-4.8421,-46.7686,142.3524,-144.278259,273.739136,19.617392,984.1605,4.377885,0.550451
21/11/2018,13:24.0,113.199997,-75.69290787,45.38714357,-42.1917,19.6933,143.1301,-21.843479,200.904343,42.782608,984.1322,5.53023,0.550451
21/11/2018,13:26.0,113.1000061,-75.69290024,45.38703676,-28.2499,29.7814,142.8439,412.521729,72.765221,119.582611,984.152,6.337901,0.416696
21/11/2018,13:28.0,113.1000061,-75.69286973,45.38691469,-35.0208,-130.703,141.9702,124.104347,106.921738,-142.747833,984.106,6.950085,0.293231
21/11/2018,13:30.0,113,-75.69283158,45.38679261,-34.6389,-170.8948,148.2927,-346.295654,-40.278259,-49.599998,984.106,7.222738,0.010289
21/11/2018,13:32.0,113,-75.69279343,45.38667054,15.1691,-43.8406,146.7551,-48.556522,-252.17392,-115.060867,984.1407,6.564255,-0.360108
21/11/2018,13:34.0,112.8999939,-75.69276292,45.38655992,-21.5728,45.3138,143.9149,416.695648,240.278259,-100.939133,984.1576,5.838894,-0.282942
21/11/2018,13:36.0,113.1000061,-75.6927324,45.38646074,-16.432,72.3356,142.9508,-342.121735,128,35.686958,984.1464,5.736006,0.005144
21/11/2018,13:38.0,113.199997,-75.69270188,45.38636155,-12.0218,-47.2246,142.5998,146.782608,-173.773911,-61.078262,984.1874,5.694851,-0.010289
21/11/2018,13:40.0,113.5,-75.69264847,45.38626619,18.6571,54.9153,139.9968,-45.565216,-59.826088,51.47826,984.2001,5.885193,0.08231
21/11/2018,13:42.0,113.8000031,-75.69261033,45.38615175,8.5928,8.0382,138.2597,-43.756523,134.539124,38.678261,984.1506,6.368767,0.30352
21/11/2018,13:44.0,114,-75.69255692,45.38602968,-25.7087,36.1435,135.7619,157.982605,-58.713043,-31.234783,984.1301,7.006673,0.241787
21/11/2018,13:46.0,114.199997,-75.69250352,45.3859076,-27.1833,144.9839,132.4782,-31.095652,-133.773911,0.973913,984.1301,7.490247,0.308664
21/11/2018,13:48.0,114.199997,-75.69242722,45.38577791,-7.8313,76.7207,129.6698,251.199997,-30.886957,205.91304,984.1287,8.112719,0.298376
21/11/2018,13:50.0,114.199997,-75.69235093,45.38563676,-64.3991,170.1998,128.7922,-299.130432,-189.843475,102.95652,984.1287,8.817501,0.334386
21/11/2018,13:52.0,114.3000031,-75.69224412,45.38553376,-26.4234,57.9192,131.7995,-327.165222,-4.034782,94.469566,984.1287,6.116692,-0.571028
21/11/2018,13:54.0,114.6000061,-75.6921373,45.38543458,-18.2352,-59.2811,130.883,-64.278259,-57.530434,5.843478,984.181,7.629145,0.68935
21/11/2018,13:56.0,114.699997,-75.69202286,45.38531251,16.4638,41.2595,130.486,-48.417393,169.530441,191.86087,984.159,8.632304,0.442419
21/11/2018,13:58.0,114.699997,-75.69189316,45.38517518,0.9504,45.0481,130.9407,133.008698,-47.513042,-54.191303,984.1462,9.280498,0.298376
21/11/2018,14:00.0,114.8000031,-75.69176346,45.38502641,-8.0406,68.4467,130.6359,278.608704,-201.182602,49.878262,984.1462,9.553151,0.097744
21/11/2018,14:02.0,114.699997,-75.69164139,45.38488145,6.8647,-44.5907,125.9506,20.104347,-602.434753,-29.495651,984.1462,9.702339,0.123465
21/11/2018,14:04.0,114.699997,-75.69150406,45.38473649,11.366,-34.5946,118.231,396.17392,-271.373901,-168.695648,984.915,9.805226,0.102887
21/11/2018,14:06.0,114.699997,-75.69132096,45.38462205,12.0942,43.7956,120.7019,66.365219,365.913055,102.886955,984.1694,9.450263,-0.241786
21/11/2018,14:08.0,115,-75.69111497,45.38453813,-12.398,-66.1027,121.3818,183.513046,-244.03479,-29.217392,984.76,9.115876,-0.144044
21/11/2018,14:10.0,115.3999939,-75.69090134,45.38448472,11.8633,68.6646,126.0327,4.104348,-3.826087,166.191299,984.1476,7.567412,-1.409566
21/11/2018,14:12.0,115.8000031,-75.69074875,45.38445802,7.2864,29.1452,110.6085,-280.834778,111.443481,107.408699,984.1618,5.072378,-1.090613
21/11/2018,14:14.0,116.1000061,-75.69062668,45.38445802,-12.3943,36.202,99.1721,189.008698,-365.773926,-48.556522,984.1618,4.542505,-0.015433
21/11/2018,14:16.0,116.1000061,-75.69050461,45.38449235,-11.9925,17.3926,85.8969,-158.121735,-454.956512,54.886955,984.644,5.159833,0.401263
21/11/2018,14:18.0,116.199997,-75.69039017,45.3845572,-19.4888,41.8548,76.8836,254.121735,229.773911,40.208694,984.267,6.265879,0.509296
21/11/2018,14:20.0,116.1000061,-75.69031388,45.3846602,21.058,-51.6886,70.1084,135.026093,-345.182617,180.800003,984.515,6.723731,0.190343
21/11/2018,14:22.0,115.8999939,-75.69029099,45.38479371,-11.3111,-135.5027,66.7464,-128.973907,76.730438,65.04348,984.2,6.867774,0.113177
21/11/2018,14:24.0,115.6000061,-75.69030625,45.38490434,-1.9132,-58.5408,65.7362,-21.704348,472.417389,149.356522,984.2,6.260735,-0.411552
21/11/2018,14:26.0,115.5,-75.69035203,45.38501115,2.0174,0.1121,75.1065,234.434784,23.721739,-50.713043,984.527,5.200988,-0.529874
21/11/2018,14:28.0,115.3999939,-75.69042832,45.385076,-11.6199,-6.7809,96.0485,181.147827,-210.08696,49.808697,984.949,4.043498,-0.493862
21/11/2018,14:30.0,115.3999939,-75.69050461,45.38511033,-26.0173,62.1524,123.4813,27.965218,77.773911,28.382608,984.962,3.29756,-0.334386
21/11/2018,14:32.0,115.199997,-75.69058854,45.38511033,-1.8622,-67.2997,139.431,179.339127,-304.765228,162.365219,984.76,3.158662,-0.005145
21/11/2018,14:34.0,114.8000031,-75.69066483,45.38509507,-59.4608,-160.3552,146.5713,-294.817383,-306.226074,-147.339127,984.1217,3.55478,0.25722
21/11/2018,14:36.0,114.5,-75.69074875,45.38504548,-23.8178,-40.3072,148.2011,38.469566,-292.382599,49.808697,984.1168,4.311007,0.38583
21/11/2018,14:38.0,114.199997,-75.69080216,45.384973,14.2848,-43.2548,147.9278,-192.626083,-6.469565,298.226074,984.913,4.923191,0.30352
21/11/2018,14:40.0,114,-75.69084794,45.38488145,11.7697,-76.9405,133.8934,-90.434784,-55.443478,-56.626087,984.1041,5.74115,0.452707
21/11/2018,14:42.0,114.199997,-75.69084794,45.38475938,1.4261,74.929,128.3468,300.313049,-246.260864,102.469566,984.1041,6.960373,0.684205
21/11/2018,14:44.0,114.199997,-75.69077927,45.38462968,-22.2886,-115.0898,125.0482,277.217377,231.582611,126.052177,984.1399,7.855499,0.406408
21/11/2018,14:46.0,114.199997,-75.69064957,45.38450761,18.4068,68.3004,126.1932,118.747826,80.13913,-271.304352,984.1399,8.493405,0.324097
21/11/2018,14:48.0,114.199997,-75.69049698,45.38439317,17.0346,-113.3089,125.4392,74.434784,260.452179,-152.834778,984.1285,8.848368,0.097744
21/11/2018,14:50.0,114.199997,-75.69031388,45.38428636,25.1323,-43.8979,126.8699,92.521736,228.591309,165.495651,984.1144,8.976978,0.036012
21/11/2018,14:52.0,114.3000031,-75.69013077,45.38419099,-3.213,-126.1233,127.6152,499.060883,193.600006,101.495651,984.1037,9.043855,0.036011
21/11/2018,14:54.0,114.3000031,-75.68994004,45.38408418,-13.2033,-134.6279,127.0048,-230.469559,-138.921738,-41.530434,984.1172,9.079866,0.005145
21/11/2018,14:56.0,114.3999939,-75.6897493,45.383985,-2.8491,44.9851,125.4496,-277.773926,202.365219,-28.730434,984.1476,8.997555,-0.087455
21/11/2018,14:58.0,114.6000061,-75.6895662,45.38388963,-29.4479,-37.4947,125.9045,18.086956,157.843475,-65.391304,984.1318,9.018134,0.020578
21/11/2018,15:00.0,114.8000031,-75.68936783,45.38379808,-15.2947,69.7014,125.8628,283.060883,-236.313049,-57.947826,984.1318,9.13131,0.08231
21/11/2018,15:02.0,114.8999939,-75.6891771,45.38371034,-17.0852,-71.8382,125.9736,-68.660866,122.226089,-16.278261,984.1318,9.162176,0.020577
21/11/2018,15:04.0,115,-75.68897874,45.38361879,-4.8637,48.8762,124.6893,251.756516,31.930435,99.408699,984.1522,9.151888,-0.005144
21/11/2018,15:06.0,115.199997,-75.68877274,45.38353105,46.9102,31.787,126.1354,116.104347,34.643478,206.747833,984.1086,9.115876,-0.036012
21/11/2018,15:08.0,115.199997,-75.68858201,45.3834395,-13.8814,-175.339,124.2098,-221.704346,245.704346,57.321739,984.1086,9.069577,-0.025723
21/11/2018,15:10.0,115.3000031,-75.68838364,45.38335939,-4.4437,-140.2669,126.3119,-229.286957,-99.339134,-143.652176,984.1722,9.141599,0.08231
21/11/2018,15:12.0,115.3999939,-75.68817765,45.38327928,-24.71,13.771,125.644,255.652176,-20.799999,104.695656,984.1318,9.157032,-0.015434
21/11/2018,15:14.0,115.5,-75.68797166,45.38319536,-3.8373,72.1401,125.9736,511.86087,252.104355,158.121735,984.139,9.126165,-0.020578
21/11/2018,15:16.0,115.5,-75.68776566,45.38311525,4.5099,-44.8229,126.962,5.773913,-16.904348,30.747826,984.1448,9.141599,0.010289
21/11/2018,15:18.0,115.5,-75.6875673,45.38303514,8.2021,-122.0381,127.2868,82.08696,-257.460876,-17.878262,984.1692,9.229054,-0.005145
21/11/2018,15:20.0,115.6000061,-75.68735367,45.38295121,5.3081,-36.2377,126.7081,278.747833,441.878265,-119.721741,984.1539,9.239342,0.015433
21/11/2018,15:22.0,115.699997,-75.68714768,45.38287111,-36.8248,24.0844,127.5409,-180.243484,142.956528,18.017391,984.128,9.234198,-0.010288
21/11/2018,15:24.0,115.699997,-75.68694169,45.382791,-10.118,77.4171,127.3039,158.886963,292.730438,58.226086,984.1235,9.21362,-0.015434
21/11/2018,15:26.0,115.8000031,-75.68674332,45.38270707,16.0935,-42.6713,126.4662,238.539124,-114.852173,1.46087,984.1337,9.08501,0.005145
21/11/2018,15:28.0,115.8000031,-75.68664414,45.38266893,26.3149,-47.3481,117.8684,237.982605,-273.460876,28.799999,984.1797,9.234198,0
21/11/2018,15:30.0,116,-75.68633134,45.38254686,9.4037,-78.618,125.2303,-276.243469,91.478264,50.573914,984.1232,9.121021,-0.097744
21/11/2018,15:32.0,116.1000061,-75.68613297,45.38246293,-20.3019,-49.8908,124.3302,68.730438,12.869565,32.13913,984.1538,8.997555,0
21/11/2018,15:34.0,116.3000031,-75.68592698,45.38239045,-24.8043,-52.0124,124.7175,48.13913,289.113037,173.286957,984.118,8.966689,0.005145
21/11/2018,15:36.0,116.5,-75.68572098,45.38231797,19.0827,-41.9321,126.0339,74.295654,-132.382614,-46.608696,984.1466,8.997555,0.015434
21/11/2018,15:38.0,116.8000031,-75.68552262,45.3822455,-33.8787,-171.8461,137.1866,276.17392,-122.782608,28.799999,984.1689,8.462538,-0.535017
21/11/2018,15:40.0,117.199997,-75.68538529,45.38220353,-8.1688,48.5904,134.7269,119.443481,-154.643478,202.504349,984.1328,3.781134,-2.098915
21/11/2018,15:42.0,117.5,-75.685309,45.38218828,5.5012,-81.352,120.5437,94.330437,-38.052174,-76.243477,984.1455,3.405593,0.787093
21/11/2018,15:44.0,117.5,-75.68519456,45.38215394,-51.0243,141.8592,115.7614,390.817383,-28.66087,-150.539124,984.1319,6.502522,1.188357
21/11/2018,15:46.0,117.5,-75.68501908,45.38209672,-15.1031,71.1091,114.7924,99.199997,-155.060867,-41.530434,984.912,8.297917,0.771659
21/11/2018,15:48.0,117.6000061,-75.68480546,45.38205095,-5.0867,2.635,113.6861,324.521729,20.034782,199.930435,984.1009,9.012989,0.298375
21/11/2018,15:50.0,117.6000061,-75.68456895,45.38202424,-8.7068,49.4514,113.2842,123.686958,-219.339127,-23.721739,984.757,9.136455,0.030866
21/11/2018,15:52.0,117.6000061,-75.68433243,45.38200898,-8.367,-44.3934,110.5466,137.460876,-41.252174,-45.565216,984.62,9.115876,-0.030867
21/11/2018,15:54.0,117.6000061,-75.68409592,45.38201661,13.2885,112.21,106.7221,108.660866,135.721741,101.078262,984.296,9.17761,0.025722
21/11/2018,15:56.0,117.699997,-75.68385941,45.38203187,10.1886,120.7756,103.634,-151.930435,-104.347824,72,984.324,9.187899,0.005145
21/11/2018,15:58.0,117.699997,-75.68363053,45.38207383,3.8651,-65.0212,100.4314,134.330429,130.991302,123.478264,984.24,9.105588,-0.092598
21/11/2018,16:00.0,117.699997,-75.68341691,45.38213105,-3.4484,-94.0675,97.3802,162.782608,55.582607,145.252167,984.24,9.069577,-0.010289
21/11/2018,16:02.0,117.8000031,-75.68320328,45.38221116,3.3015,34.1602,92.979,41.113045,-378.504333,9.043478,984.24,9.110732,0.025722
21/11/2018,16:04.0,118,-75.68301255,45.38231035,5.9615,36.9743,87.5139,118.052177,-578.573914,21.286957,984.336,9.121021,-0.005145
21/11/2018,16:06.0,118,-75.68285996,45.38243242,-13.4771,-138.4467,83.7893,-51.33913,-43.47826,37.565216,984.32,9.095299,-0.015433
21/11/2018,16:08.0,117.8999939,-75.68273789,45.38256974,16.7754,-70.4648,77.9115,324.869568,256.765228,68.452171,983.3983,9.0027,-0.08231
21/11/2018,16:10.0,117.6000061,-75.68265397,45.38272615,15.2334,-137.0964,74.4137,-0.695652,-493.078247,-101.843475,983.3931,8.642592,-0.231498
21/11/2018,16:12.0,117.3000031,-75.68262345,45.38287874,-7.8784,44.5718,71.6662,-210.017395,-168.208694,120.208694,983.3675,8.318495,-0.195487
21/11/2018,16:14.0,116.8999939,-75.68260819,45.38302751,10.0504,-113.1692,68.0412,1.808696,-360.973907,1.391304,984.79,7.721745,-0.344675
21/11/2018,16:16.0,116.699997,-75.68261582,45.38315721,-44.4669,29.9113,66.0804,-209.460876,-256.347839,33.391304,984.257,7.083839,-0.318953
21/11/2018,16:18.0,116.5,-75.68264634,45.38327928,-20.4758,4.955,66.1398,0.069565,364.730438,281.460876,984.606,6.214435,-0.421841
21/11/2018,16:20.0,116.3999939,-75.68269211,45.38336702,-11.8494,-135.6109,65.3381,24.695652,-433.391296,-62.747826,984.426,5.406765,-0.365252
21/11/2018,16:22.0,116.5,-75.68275315,45.38345094,10.1869,-68.7019,69.7494,-195.96521,-87.791306,22.121738,984.426,4.696837,-0.38583
21/11/2018,16:24.0,116.6000061,-75.68283707,45.38350816,-17.7023,9.7255,78.7527,-162.852173,-186.156525,97.04348,984.712,4.311007,-0.102888
21/11/2018,16:26.0,116.6000061,-75.68291337,45.38355394,-6.6015,-99.2682,93.3231,-343.026093,226.226089,114.434784,983.4,3.745123,-0.33953
21/11/2018,16:28.0,116.5,-75.68300492,45.38358064,-28.9692,119.1702,118.0725,207.652176,-89.460869,-3.33913,983.4,3.848011,0.272653
21/11/2018,16:30.0,116.5,-75.68311173,45.38358064,-10.9652,36.4873,128.7152,152.695648,494.678253,-20.452173,984.487,3.966332,-0.185198
21/11/2018,16:32.0,116.3999939,-75.68321091,45.38356157,4.6376,80.2791,139.9784,187.060867,-411.89566,-59.200001,984.487,4.300718,0.432129
21/11/2018,16:34.0,116.199997,-75.68332535,45.38353105,-0.5166,50.3019,147.812,419.060883,-288.973907,66.573914,984.614,5.185555,0.365252
21/11/2018,16:36.0,115.699997,-75.68343217,45.38347383,19.4157,35.0329,148.9235,416,500.660858,-140.03479,984.1095,5.170122,-0.010289
21/11/2018,16:38.0,115.3000031,-75.68351609,45.38340135,-31.5181,-41.3874,145.7843,-4.452174,73.808693,220.17392,984.1158,5.381042,0.17491
21/11/2018,16:40.0,115,-75.68360001,45.38331743,-7.5597,44.5592,148.0132,105.669563,69.426086,44.38261,984.102,5.777161,0.293231
21/11/2018,16:42.0,114.699997,-75.68366105,45.38321443,7.1392,-43.9126,148.8439,-153.808701,174.817398,89.669563,984.1549,6.152702,0.236642
21/11/2018,16:44.0,114.6000061,-75.68370682,45.38309999,-44.1598,28.5711,143.572,86.121742,144.278259,161.600006,984.1256,6.51281,0.113177
21/11/2018,16:46.0,114.3999939,-75.68373734,45.38298555,-20.9481,-52.0096,148.3821,-187.895645,23.513044,-136.834778,984.124,6.939795,0.426985
21/11/2018,16:48.0,114.3000031,-75.68376023,45.38285585,0.1119,-93.5851,148.9633,-145.043472,242.365219,-28.591305,984.906,7.063261,-0.036011
21/11/2018,16:50.0,114.199997,-75.68379838,45.38273378,1.2216,-101.9573,123.589,-322.156525,497.043488,147.96521,984.791,6.322468,-0.380685
21/11/2018,16:52.0,113.8999939,-75.68385941,45.38263459,-22.7488,56.2917,90,329.460876,256.973907,93.704346,984.1276,5.216422,-0.612183
21/11/2018,16:54.0,113.8999939,-75.68394333,45.38256974,-6.8039,-106.0663,72.2324,361.252167,15.582608,-20.591305,984.96,4.19783,-0.499007
21/11/2018,16:56.0,114,-75.68404252,45.38255449,24.9973,-36.0568,70.3658,92.939133,-18.573914,-22.121738,984.1611,4.125809,0.113177
21/11/2018,16:58.0,114.199997,-75.68415696,45.38256212,-22.8773,60.3646,68.4814,189.426086,-240.973907,-162.017395,984.1192,4.259563,0.108032
21/11/2018,17:00.0,114.3999939,-75.68425614,45.38259645,19.3509,-10.643,70.1531,143.791306,154.852173,-14.886956,984.806,4.542505,0.118321
21/11/2018,17:02.0,114.699997,-75.68436295,45.38263459,-2.8892,59.3428,70.9274,218.713043,188.17392,121.530434,984.913,4.789437,0.118321
21/11/2018,17:04.0,114.8999939,-75.68446976,45.38267656,-15.4552,43.016,72.5931,-290.365204,334.191315,193.460876,984.143,5.010645,0.195487
21/11/2018,17:06.0,115,-75.6845842,45.38272615,27.175,-38.9803,71.215,30.052174,166.608688,27.756521,984.412,5.06209,0.010289
21/11/2018,17:08.0,115.1000061,-75.68469102,45.38278337,-14.3455,-37.9004,72.512,336.626099,248.13913,168.834778,984.1066,5.381042,0.149188
21/11/2018,17:10.0,115,-75.68480546,45.38284059,-14.048,43.3639,73.5544,-130.156525,-472.973907,-95.165215,984.713,5.396475,0.015433
21/11/2018,17:12.0,114.8999939,-75.6849199,45.38289781,-8.7239,44.3956,32.9387,-161.043472,-107.478264,121.878258,984.207,5.1907,-0.169765
21/11/2018,17:14.0,114.8000031,-75.6850496,45.38294359,-40.5304,130.5673,33.9842,44.869564,101.704346,104.90435,984.458,6.271023,0.946569
21/11/2018,17:16.0,114.3999939,-75.68522507,45.38298555,-7.7227,-44.4827,26.464,-211.478256,-505.391296,-0.765217,984.458,8.637448,2.042327
21/11/2018,17:18.0,113.8000031,-75.68547684,45.38302751,-21.6627,-35.0117,24.3113,-345.530426,-61.078262,84.382607,984.115,10.936995,0.874548
21/11/2018,17:20.0,113,-75.68577439,45.38308473,-13.1849,-18.9704,26.7871,-672.556519,33.321739,87.443481,983.3954,11.940152,0.252075
21/11/2018,17:22.0,112.3000031,-75.68606431,45.38314958,-5.8467,-44.7027,27.4744,-68.382607,315.82608,-166.469559,983.4013,11.945296,-0.169765
21/11/2018,17:24.0,111.699997,-75.68637711,45.3832068,6.6192,16.86,25.4942,584,-47.582607,110.191307,984.476,12.00703,0.036011
21/11/2018,17:26.0,111.199997,-75.68667466,45.38326402,-11.0298,44.0051,24.0902,452.10434,-170.852173,35.756523,984.987,12.315694,0.118322
21/11/2018,17:28.0,110.699997,-75.68698746,45.3833098,6.0939,76.0679,28.387,-126.539131,-372.03479,5.913043,984.984,12.284827,0.087455
21/11/2018,17:30.0,110.5,-75.68729264,45.38336702,-23.8918,-139.2415,24.4655,-79.026085,-65.669563,30.539131,984.914,12.42887,0.015434
21/11/2018,17:32.0,110.3000031,-75.68761307,45.38341661,4.044,12.4379,22.5333,-301.147827,227.96521,-264.347839,984.1251,12.639791,0.200631
21/11/2018,17:34.0,110.199997,-75.68793351,45.3834662,-17.8348,-141.806,66.3706,-166.121735,-56.973911,-9.73913,984.1777,12.716956,-0.020578
21/11/2018,17:36.0,110.3999939,-75.6882158,45.38351579,8.4634,-65.4813,73.5658,-219.617386,12.382608,-201.043472,984.2234,9.445119,-2.068048
21/11/2018,17:38.0,110.6000061,-75.68842179,45.38356157,-7.5514,10.8683,68.4201,133.217392,-171.686951,100.313042,984.2393,7.464525,-0.766515
21/11/2018,17:40.0,111.1000061,-75.68858964,45.3835959,-37.9593,153.2101,54.2575,-126.678261,-102.052177,-35.130436,984.1685,7.047828,-0.097744
21/11/2018,17:42.0,111.3999939,-75.68876511,45.38363023,-16.486,136.7361,26.785,176.904343,-184.765213,-286.121735,984.1989,7.41308,0.277798
21/11/2018,17:44.0,111.3999939,-75.68898636,45.38365312,-18.8922,50.7754,22.6844,227.478256,317.356537,-173.773911,984.1989,9.815515,1.486731
21/11/2018,17:46.0,111.1000061,-75.68925339,45.38369508,21.715,147.5553,26.0591,-140.730438,-291.060883,165.008698,984.406,11.127337,0.421841
21/11/2018,17:48.0,110.699997,-75.68953568,45.38374086,-22.2542,40.9254,26.2778,102.747826,318.052185,-202.504349,984.406,11.214792,-0.041155
21/11/2018,17:50.0,110.3000031,-75.68981797,45.38379045,3.0702,-174.422,26.2001,211.82608,-26.782608,243.130432,984.994,11.081038,-0.025722
21/11/2018,17:52.0,110,-75.69010026,45.38382478,-11.8021,-43.8012,23.7908,-176.486954,-180.313049,108.521736,984.994,12.048185,0.59675
21/11/2018,17:54.0,109.699997,-75.69042832,45.3838553,-30.8943,-5.9326,23.4876,214.260864,394.713043,-99.965218,984.975,12.94331,0.370396
21/11/2018,17:56.0,109.5,-75.69077164,45.38388963,-26.1621,-39.3951,10.6197,-281.947815,-112.486954,37.147827,984.724,13.16452,-0.025722
21/11/2018,17:58.0,109.199997,-75.69109208,45.38391252,-49.6343,-158.1721,25.6515,324.10434,-349.634796,129.321732,984.1644,12.526614,-0.344675
21/11/2018,18:00.0,109.1000061,-75.69140488,45.38393922,-12.0947,-31.8058,28.999,-47.930435,-136.278259,-3.686956,984.1142,11.70351,-0.375541
21/11/2018,18:02.0,109,-75.6916948,45.38396211,-33.5577,123.6523,24.5901,-319.443481,360.347839,-5.913043,984.1142,11.019305,-0.483574
21/11/2018,18:04.0,109,-75.69197709,45.38396974,-3.5324,-134.769,24.5151,217.530441,296.278259,-113.530434,984.1762,10.808385,0.087455
21/11/2018,18:06.0,108.8000031,-75.69225938,45.383985,-9.6748,-135.259,25.6719,152.765213,-23.304348,106.365219,984.1975,11.23537,0.113176
21/11/2018,18:08.0,107.8999939,-75.69254929,45.38400407,-2.454,-96.0004,28.6309,537.599976,445.704346,150.886963,984.2949,11.533745,0.025722
21/11/2018,18:10.0,104.6000061,-75.69283921,45.3840117,0.368,-55.1344,29.0794,69.704346,621.634766,58.573914,985.1141,10.731219,-0.313808
21/11/2018,18:12.0,99,-75.69311387,45.38403459,-13.7474,57.2337,25.2843,-130.156525,597.286926,65.321739,985.3649,10.900984,0.138899
21/11/2018,18:14.0,93.3999939,-75.69339615,45.38404985,-11.0797,-135.4577,25.244,537.391296,374.886963,-97.669563,986.1343,11.436001,0.267509
21/11/2018,18:16.0,88.6000061,-75.69370133,45.38406892,-13.6855,-126.2938,25.5374,406.052185,-385.600006,-108.173912,986.3343,12.115062,0.318952
21/11/2018,18:18.0,85.30000305,-75.69399888,45.38409181,-18.3027,5.8313,23.9917,-75.408699,191.373917,7.234783,987.1724,11.6212,-0.17491
21/11/2018,18:20.0,81.5,-75.69430405,45.38409944,-29.6537,-173.0933,24.444,6.469565,-209.669571,100.034782,987.3933,11.667499,0.036011
21/11/2018,18:22.0,76.5,-75.69459397,45.38409944,-20.1079,137.7913,28.6543,-90.573914,232.834778,149.843475,988.2898,11.616055,-0.030866
21/11/2018,18:24.0,71,-75.69489915,45.38411851,-24.071,139.2629,16.0642,259.269562,-428.730438,220.800003,989.1397,11.631489,0.149188
21/11/2018,18:26.0,68.30000305,-75.69521195,45.38412614,-35.238,35.3172,10.9442,511.721741,-84.173912,-44.243477,989.2538,13.005044,0.473285
21/11/2018,18:28.0,67.1000061,-75.69555527,45.38413377,-15.3374,-163.8882,21.1048,-173.217392,128.278259,-55.86087,989.2594,13.354862,0.118321
21/11/2018,18:30.0,66.3999939,-75.69588334,45.38414903,-25.1312,-39.8045,33.6901,-93.286957,121.599998,92.034782,989.3197,12.310549,-0.288086
21/11/2018,18:32.0,66.19999695,-75.69618851,45.38417192,4.8741,-53.5175,167.3546,-85.773911,344.486969,110.81739,989.3197,11.873275,-0.159476
21/11/2018,18:34.0,66.5,-75.69632584,45.38420625,20.8384,49.3673,77.2187,522.991333,219.478256,37.773914,989.3197,1.723374,-3.920033
21/11/2018,18:36.0,67,-75.69636399,45.38422151,-15.4595,-74.0522,102.7243,276.869568,197.078262,37.565216,989.4003,0.051444,-1.924006
21/11/2018,18:38.0,67.3999939,-75.69635636,45.38421388,0.6505,34.0226,60.0808,372.799988,85.565216,25.878262,989.3739,0.020578,0.010289
21/11/2018,18:40.0,68.8999939,-75.69640214,45.38422151,-6.8459,45.2062,67.8905,215.373917,314.086945,235.478256,989.3916,3.055774,2.886009
21/11/2018,18:42.0,69.1000061,-75.69649369,45.38422914,5.6175,-67.6724,81.4883,13.634783,82.782608,-80.834785,989.3214,4.03321,0.318953
21/11/2018,18:44.0,69.30000305,-75.69660813,45.38424821,2.2965,-51.9576,131.7428,-171.96521,245.495651,-15.721739,989.3303,4.434473,0.102888
21/11/2018,18:46.0,69.3999939,-75.69672257,45.38425584,15.8667,28.3441,148.6752,535.86084,-289.808685,148.104355,989.3,4.03321,-0.699638
21/11/2018,18:48.0,69.80000305,-75.69675309,45.38425584,-29.0978,60.5264,166.2671,235.339127,-42.782608,-391.026093,989.3993,1.378699,0.08231
21/11/2018,18:50.0,69.6000061,-75.69673783,45.38425584,-3.7386,-67.5735,87.2234,-46.330433,-72.069565,-194.156525,989.3638,0.030866,-0.910559
21/11/2018,18:52.0,69.19999695,-75.69673783,45.38424058,-14.8436,-116.398,77.2534,151.373917,8.069565,38.747826,989.3333,2.597922,2.525901
21/11/2018,18:54.0,68.30000305,-75.69679124,45.38419099,-21.719,172.8081,84.1844,190.260864,-310.747833,-151.791306,989.3416,3.611369,0.010289
21/11/2018,18:56.0,65.80000305,-75.69685227,45.3841414,-24.6529,114.6615,86.3745,123.617393,-128.417389,-127.234779,990.207,2.937452,-0.298375
21/11/2018,18:58.0,62.80000305,-75.69688279,45.38410707,-25.4683,30.2645,91.853,299.269562,-177.182602,-100.521736,990.334,1.862273,-0.509296
21/11/2018,19:00.0,60.8999939,-75.69688279,45.38407655,-10.6193,150.7902,99.8379,306.504333,-233.739136,-54.678261,991.483,1.67193,-0.097744
21/11/2018,19:02.0,59.3999939,-75.69686753,45.38404985,6.8011,74.2436,97.7921,17.391304,50.504349,90.921738,991.1666,2.237814,0.545306
21/11/2018,19:04.0,57.69999695,-75.69682175,45.38401933,-4.1117,44.9084,79.8364,-39.582607,20.173914,16.765217,991.2064,2.340702,0.097744
21/11/2018,19:06.0,56.19999695,-75.69677598,45.38399644,21.0005,-54.8273,94.8049,-163.478256,-281.460876,-43.47826,991.255,1.687363,-0.272653
21/11/2018,19:08.0,55.3999939,-75.69673783,45.383985,10.083,23.0056,67.1663,630.400024,252.17392,-60.730434,991.322,1.605053,0.102888
21/11/2018,19:10.0,55.30000305,-75.69672257,45.38397737,6.0418,-70.6649,71.3421,61.843479,247.513046,-0.417391,991.3166,0.637906,-0.324097
21/11/2018,19:12.0,55.30000305,-75.69670731,45.38397737,23.6209,4.8143,89.5145,265.043488,-39.026089,79.443481,991.3156,0.241787,-0.246931
21/11/2018,19:14.0,55.1000061,-75.69669968,45.38397737,-21.9535,-0.8319,73.1549,250.782608,-85.147827,3.33913,991.3124,0.931136,0.349819
21/11/2018,19:16.0,54.8999939,-75.69669205,45.38396974,-0.5807,-79.4715,77.6861,151.791306,139.269562,17.252174,991.2747,0.015433,-0.59675
21/11/2018,19:18.0,54.69999695,-75.69669205,45.38396974,-0.2186,77.5523,78.6571,313.391296,30.608696,23.304348,991.2747,0.015433,0.010289
21/11/2018,19:20.0,54.3999939,-75.69669205,45.38396974,-24.5853,50.5156,83.2806,-34.643478,121.808693,52.799999,991.3588,0.010289,0
21/11/2018,19:22.0,54,-75.69669205,45.38396974,-1.0283,-68.9385,87.5998,95.582611,2.713043,-11.2,991.3588,0.015433,0.005144
21/11/2018,19:24.0,53.8999939,-75.69669205,45.38396974,29.0042,20.8869,103.0485,-190.399994,30.747826,-72.626083,991.3588,0,0
21/11/2018,19:26.0,53.8999939,-75.69669205,45.38396974,1.6736,-4.3968,106.4404,45.147827,-12.869565,7.930435,992.218,0,0
21/11/2018,19:28.0,53.8999939,-75.69669205,45.38396974,3.031,-8.7185,106.2874,34.504349,-8.417392,13.773913,992.218,0,0
21/11/2018,19:30.0,53.8999939,-75.69669205,45.38396974,3.7243,-6.0071,106.5044,15.860869,-31.026087,-15.373913,992.218,0,0
