date,time(local time),altitude (m),longitude,latitude,tilt (deg),roll (deg),compass (deg),gyro-x (deg/s),gyro-y (deg/sec),gyro-z (deg/s),pressure (hPa),speed (m/s),acceleration (m/s)
21/11/2018,57:24.0,62.6000061,-75.69669968,45.38399644,0,0,180,17.808695,-10.573913,-25.6,0,0.298375,
21/11/2018,57:25.0,63.3999939,-75.69669205,45.38399644,2.173,-3.6957,101.2651,4.869565,14.052174,-20.173914,988.2397,0.190343,-0.108032
21/11/2018,57:26.0,57.19999695,-75.69666917,45.38395448,0.8392,-1.4686,101.7208,8.904347,11.547826,-5.634783,988.2757,0.072022,-0.118321
21/11/2018,57:28.0,58.30000305,-75.69666917,45.38395448,1.5241,-1.5241,101.0849,6.330435,-3.130435,-18.991304,988.2469,0.102888,0.015433
21/11/2018,57:29.0,59.1000061,-75.69666917,45.38395448,3.4662,-1.9489,101.627,31.026087,8.139131,-4.382609,988.2891,0.08231,-0.020578
21/11/2018,57:30.0,59.1000061,-75.69666917,45.38395448,-0.2142,-3.4293,101.489,33.391304,-3.130435,-5.634783,988.2891,0.0463,-0.036011
21/11/2018,57:31.0,59.19999695,-75.69666917,45.38395448,-0.8708,-1.9597,101.5806,3.617391,-11.826087,-18.226088,988.2981,0.08231,0.036011
21/11/2018,57:32.0,59,-75.69666917,45.38396211,1.9262,-3.8546,101.4465,32.069565,-5.147826,-14.817391,988.2971,0.005144,-0.077166
21/11/2018,57:33.0,59.19999695,-75.69666917,45.38396211,2.5498,-3.4005,100.5239,34.782608,-5.078261,-2.713043,988.2971,0.030866,0.025722
21/11/2018,57:34.0,59.30000305,-75.69666917,45.38396211,2.1915,-2.8494,101.4465,16.486956,-0.13913,4.104348,988.2971,0.015433,-0.015433
21/11/2018,57:35.0,59.3999939,-75.69666917,45.38396211,1.8656,-2.6953,101.853,27.826086,12.173913,-11.408695,988.2971,0.030866,0.015433
21/11/2018,57:36.0,59.5,-75.69666917,45.38396211,0.4415,-3.7552,101.3099,11.130435,1.321739,-16.278261,988.2971,0.005144,-0.025722
21/11/2018,57:37.0,59.3999939,-75.69666917,45.38396211,0.4404,-2.2025,101.4465,33.808697,-17.460869,-11.060869,988.2971,0.005144,0
21/11/2018,57:38.0,59.19999695,-75.69666917,45.38396211,1.8087,-2.94,101.3099,29.913044,5.565217,-16.347826,988.2971,0.010289,0.005144
21/11/2018,57:39.0,59.1000061,-75.69666917,45.38396211,1.2913,-2.1524,101.3099,11.2,4.521739,-27.826086,988.2791,0.010289,0
21/11/2018,57:40.0,58.8999939,-75.69666917,45.38396211,0.8873,-2.6627,101.3551,22.608696,8.486957,-16,988.2791,0.005144,-0.005144
21/11/2018,57:41.0,58.80000305,-75.69666917,45.38396211,-1.101,-1.9822,101.2651,4.8,-8.069565,-15.443479,988.3134,0,-0.005144
21/11/2018,57:42.0,58.80000305,-75.69666917,45.38396211,0.8316,-3.7445,101.4006,5.217391,-3.756522,-8.069565,988.2955,0.005144,0.005144
21/11/2018,57:43.0,58.8999939,-75.69666917,45.38396211,0.8269,-1.8607,101.2651,6.4,13.426087,-3.617391,988.2955,0.010289,0.005144
21/11/2018,57:44.0,58.80000305,-75.69666917,45.38396211,1.9489,-3.4662,101.2651,27.130434,9.947826,-7.165217,988.3247,0.005144,-0.005144
21/11/2018,57:45.0,58.80000305,-75.69666917,45.38396211,0.4264,-4.2678,101.5346,23.86087,-5.982609,-2.573913,988.3247,0,-0.005144
21/11/2018,57:46.0,58.8999939,-75.69666917,45.38396211,1.7008,-3.1902,101.1292,34.365219,0.765217,-10.504348,988.307,0,0
21/11/2018,57:47.0,58.80000305,-75.69666917,45.38396211,1.786,-3.7974,101.7208,4.730435,-15.443479,-0.904348,988.307,0.015433,0.015433
21/11/2018,57:48.0,58.8999939,-75.69666917,45.38396211,-1.086,-4.3479,101.1766,23.165216,0.069565,-10.156522,988.307,0.010289,-0.005144
21/11/2018,57:49.0,58.8999939,-75.69666917,45.38396211,4.8929,-4.0404,101.5806,23.165216,9.391304,-14.608696,988.2989,0.005144,-0.005144
21/11/2018,57:50.0,59.1000061,-75.69667679,45.38396211,1.4728,-2.5253,101.2642,32.765217,-5.982609,-9.73913,988.2989,0.005144,0
21/11/2018,57:51.0,59.1000061,-75.69667679,45.38396211,2.1304,-4.4773,101.2651,6.817391,-7.373913,-10.226087,988.3102,0,-0.005144
21/11/2018,57:52.0,59.1000061,-75.69667679,45.38396211,1.9458,-4.7609,101.3551,30.81739,-11.617392,-5.217391,988.2639,0,0
21/11/2018,57:53.0,59.1000061,-75.69667679,45.38396211,1.8988,-3.377,101.2207,19.130434,-6.886957,-16.765217,988.2856,0.005144,0.005144
21/11/2018,57:54.0,59.1000061,-75.69667679,45.38396211,1.8404,-1.4314,101.5346,22.747826,-17.391304,1.321739,988.2882,0.010289,0.005144
21/11/2018,57:55.0,59.1000061,-75.69667679,45.38396211,-0.2137,-1.7098,101.5806,26.713043,-1.6,-10.504348,988.3036,0.005144,-0.005144
21/11/2018,57:56.0,59.1000061,-75.69667679,45.38396211,1.0895,-4.799,101.1766,35.200001,2.921739,-7.652174,988.3119,0,-0.005144
21/11/2018,57:57.0,59.1000061,-75.69667679,45.38396211,1.088,-5.6663,101.4437,21.565218,-12.243478,-16.347826,988.3216,0.005144,0.005144
21/11/2018,57:58.0,59.1000061,-75.69667679,45.38396211,1.5233,-2.3942,101.5346,9.6,7.930435,-15.721739,988.3216,0.005144,0
21/11/2018,57:59.0,59.1000061,-75.69667679,45.38396211,2.1884,-4.1606,101.4927,23.791304,1.391304,-11.756522,988.2934,0.005144,0
21/11/2018,58:00.0,59.1000061,-75.69667679,45.38396211,-0.8445,-2.957,101.2207,7.095652,-5.217391,-8.834783,988.3292,0.005144,0
21/11/2018,58:01.0,59.1000061,-75.69667679,45.38396211,3.2027,-1.2805,101.4006,15.860869,0.208696,-16.695652,988.3292,0.005144,0
21/11/2018,58:02.0,59.1000061,-75.69667679,45.38396211,0,-4.2679,101.4437,6.53913,-3.408696,-3.826087,988.3292,0.005144,0
21/11/2018,58:03.0,59.1000061,-75.69667679,45.38396211,0.8925,-4.4666,101.5806,8.904347,10.086957,-0.765217,988.3292,0.005144,0
21/11/2018,58:04.0,59.1000061,-75.69667679,45.38396211,4.3924,-3.0731,101.6737,47.165218,7.095652,-1.043478,988.3188,0,-0.005144
21/11/2018,58:05.0,59.1000061,-75.69667679,45.38396211,2.4072,-3.2104,101.6206,27.269566,2.852174,-7.304348,988.3188,0,0
21/11/2018,58:06.0,59.1000061,-75.69667679,45.38396211,2.7547,-2.1186,101.4006,17.18261,3.895652,-16.834784,988.3273,0.005144,0.005144
21/11/2018,58:07.0,59.1000061,-75.69667679,45.38396211,1.285,-3.4285,101.4927,13.982609,-2.504348,-10.643478,988.3275,0.005144,0
21/11/2018,58:08.0,59.1000061,-75.69667679,45.38396211,2.5073,-1.0444,101.2651,24.556522,-12.452174,1.043478,988.3275,0.005144,0
21/11/2018,58:09.0,59.1000061,-75.69667679,45.38396211,2.946,-1.0517,101.8058,24.278261,4.313044,-7.860869,988.3145,0,-0.005144
21/11/2018,58:10.0,59.1000061,-75.69667679,45.38396211,3.3303,-4.4423,101.489,25.6,1.6,0.417391,988.3145,0.005144,0.005144
21/11/2018,58:11.0,59.1000061,-75.69667679,45.38396211,2.1351,-2.3487,101.6664,22.121738,7.721739,-8.834783,988.2851,0.005144,0
21/11/2018,58:12.0,59.1000061,-75.69667679,45.38396211,1.5018,-4.9402,101.3988,12.452174,0.904348,-3.060869,988.3081,0.005144,0
21/11/2018,58:13.0,59.1000061,-75.69667679,45.38396211,2.3906,-3.4784,101.5346,2.434783,3.478261,2.434783,988.3328,0,-0.005144
21/11/2018,58:14.0,59.1000061,-75.69667679,45.38396211,0.6356,-3.1796,101.5752,12.939131,1.182609,-7.234783,988.357,0.005144,0.005144
21/11/2018,58:15.0,59.1000061,-75.69667679,45.38396211,0.4223,-2.9572,102.4029,6.330435,0.486957,-0.417391,988.404,0.005144,0
21/11/2018,58:16.0,59.1000061,-75.69667679,45.38396211,-2.6215,-1.5288,101.4854,22.4,0.973913,6.886957,988.3109,0.005144,0
21/11/2018,58:17.0,59.1000061,-75.69667679,45.38396211,1.505,-3.2264,101.5346,33.739132,-0.765217,-16.626087,988.3337,0,-0.005144
21/11/2018,58:18.0,59.1000061,-75.69667679,45.38396211,1.9005,-2.3231,101.5346,23.791304,-5.913043,-17.391304,988.3337,0,0
21/11/2018,58:19.0,59.1000061,-75.69667679,45.38396211,0.2219,-5.556,99.6051,27.617392,-0.626087,-7.026087,988.3218,0.005144,0.005144
21/11/2018,58:20.0,59.1000061,-75.69667679,45.38396211,1.3004,-2.8184,101.489,32.13913,2.086957,-13.07826,988.3656,0.005144,0
21/11/2018,58:21.0,59.1000061,-75.69667679,45.38396211,0,-3.3146,101.6664,0.556522,0,-9.252174,988.3656,0.005144,0
21/11/2018,58:22.0,59.1000061,-75.69667679,45.38396211,-1.1118,-4.0056,101.627,22.330435,9.113044,1.321739,988.3656,0.005144,0
21/11/2018,58:23.0,59.1000061,-75.69667679,45.38396211,1.2802,-3.4157,101.5346,20.452173,5.704348,5.286956,988.3414,0.005144,0
21/11/2018,58:24.0,59.1000061,-75.69667679,45.38396211,0.6529,-2.6123,101.6664,27.408695,-10.086957,-18.017391,988.3395,0.005144,0
21/11/2018,58:25.0,59.1000061,-75.69667679,45.38396211,-1.2675,-2.1128,101.4437,4.521739,-8.278261,-18.086956,988.3196,0.005144,0
21/11/2018,58:26.0,59.1000061,-75.69667679,45.38396211,0.671,-2.0133,101.6206,20.313044,0.278261,-1.252174,988.3196,0.005144,0
21/11/2018,58:27.0,59.1000061,-75.69667679,45.38396211,3.6643,-7.7783,101.3988,2.504348,5.147826,-10.504348,988.3141,0.005144,0
21/11/2018,58:28.0,59.1000061,-75.69667679,45.38396211,1.2391,-3.0989,98.0298,20.66087,-0.347826,-0.765217,988.3141,0,-0.005144
21/11/2018,58:29.0,59.1000061,-75.69667679,45.38396211,3.0712,-4.8296,100.6603,18.086956,-8.347826,-12.034782,988.3141,0.005144,0.005144
21/11/2018,58:30.0,59.1000061,-75.69667679,45.38396211,1.5398,-5.9493,101.7125,22.191305,2.504348,-8.973913,988.2894,0,-0.005144
21/11/2018,58:31.0,59.1000061,-75.69667679,45.38396211,1.3177,-4.6165,101.5346,8.417392,-9.73913,-4.243478,988.2894,0.005144,0.005144
21/11/2018,58:32.0,59.1000061,-75.69667679,45.38396211,0.6792,-5.2146,101.3988,29.07826,-2.921739,14.121739,988.2894,0.005144,0
21/11/2018,58:33.0,59.1000061,-75.69667679,45.38396211,1.5286,-2.8396,101.3542,28.52174,-10.434783,-16.13913,988.2894,0,-0.005144
21/11/2018,58:34.0,59.1000061,-75.69667679,45.38396211,2.0516,-2.5078,101.8058,19.408695,-16.904348,-9.947826,988.2894,0.005144,0.005144
21/11/2018,58:35.0,59.1000061,-75.69667679,45.38396211,1.683,-2.525,101.3988,22.469564,1.947826,3.686956,988.3259,0.005144,0
21/11/2018,58:36.0,59.1000061,-75.69667679,45.38396211,1.2812,-2.5631,101.489,14.121739,-3.617391,-5.078261,988.2796,0.005144,0
21/11/2018,58:37.0,59.1000061,-75.69667679,45.38396211,3.2474,-3.0307,101.3542,26.92174,-6.121739,-3.756522,988.2625,0.010289,0.005144
21/11/2018,58:38.0,59.1000061,-75.69667679,45.38396211,-0.4461,-4.6894,101.3542,5.147826,14.608696,-12.104348,988.3285,0.005144,-0.005144
21/11/2018,58:39.0,59.1000061,-75.69667679,45.38396211,-0.8653,-4.5475,101.3988,27.408695,0.278261,-3.060869,988.3539,0.010289,0.005144
21/11/2018,58:40.0,59.1000061,-75.69667679,45.38396211,0.8626,-4.1005,101.6664,23.652174,0.417391,-0.208696,988.2847,0,-0.010289
21/11/2018,58:41.0,59.1000061,-75.69667679,45.38396211,0.4352,-2.6124,101.3988,18.295652,2.086957,-14.817391,988.3748,0.005144,0.005144
21/11/2018,58:42.0,59.1000061,-75.69667679,45.38396211,2.2003,-2.6406,101.3542,29.495651,2.852174,-22.121738,988.3307,0.005144,0
21/11/2018,58:43.0,59.1000061,-75.69667679,45.38396211,-0.6556,-1.9673,101.489,19.130434,14.121739,-0.417391,988.3307,0.005144,0
21/11/2018,58:44.0,59.1000061,-75.69667679,45.38396211,1.4889,-2.7659,101.6206,18.017391,4.313044,-5.982609,988.3307,0.005144,0
21/11/2018,58:45.0,59.1000061,-75.69667679,45.38396211,3.3293,-1.0399,101.8058,21.565218,0.904348,-7.791304,988.3687,0.005144,0
21/11/2018,58:46.0,59.1000061,-75.69667679,45.38396211,0.4223,-2.9572,101.3988,9.321739,1.252174,-8.695652,988.3961,0.005144,0
21/11/2018,58:47.0,59.1000061,-75.69667679,45.38396211,-0.4302,-3.0127,101.5301,31.86087,-3.2,-7.513043,988.3959,0.005144,0
21/11/2018,58:48.0,59.1000061,-75.69667679,45.38396211,-0.6258,-3.9665,101.1792,33.739132,3.2,-6.608696,988.3815,0,-0.005144
21/11/2018,58:49.0,59.1000061,-75.69667679,45.38396211,2.2272,-5.3518,101.266,17.878262,2.365217,-12.939131,988.3947,0,0
21/11/2018,58:50.0,59.1000061,-75.69667679,45.38396211,0,-4.4148,101.3542,32.556522,-9.182609,-6.886957,988.3776,0.005144,0.005144
21/11/2018,58:51.0,59.1000061,-75.69667679,45.38396211,1.2967,-1.2967,101.5752,12.104348,8.208695,-5.356522,988.3776,0,-0.005144
21/11/2018,58:52.0,59.1000061,-75.69667679,45.38396211,0.8423,-1.2635,101.7589,31.582609,0.765217,12.452174,988.3877,0.005144,0.005144
21/11/2018,58:53.0,59.1000061,-75.69667679,45.38396211,-0.8906,-2.8954,101.5301,21.565218,-3.547826,-1.321739,988.3877,0,-0.005144
21/11/2018,58:54.0,59.1000061,-75.69667679,45.38396211,2.4933,-3.7414,101.489,25.530436,3.686956,-21.982609,989.97,0.005144,0.005144
21/11/2018,58:55.0,59.1000061,-75.69667679,45.38396211,2.5228,-2.9436,101.9829,34.504349,-11.895652,-6.121739,989.87,0.005144,0
21/11/2018,58:56.0,59.1000061,-75.69667679,45.38396211,-1.0681,-2.1365,101.4437,7.026087,11.826087,-10.504348,989.404,0,-0.005144
21/11/2018,58:57.0,59.1000061,-75.69667679,45.38396211,2.1648,-3.6818,101.9356,0.069565,-15.582608,1.947826,989.559,0.005144,0.005144
21/11/2018,58:58.0,59.1000061,-75.69667679,45.38396211,-0.2216,-3.5487,101.266,21.565218,-1.182609,-16.486956,989.305,0.005144,0
21/11/2018,58:59.0,59.1000061,-75.69667679,45.38396211,0.8853,-4.6528,101.8058,34.017391,0,-22.121738,989.305,0.005144,0
21/11/2018,59:00.0,59.1000061,-75.69667679,45.38396211,3.1453,-4.8261,101.2669,10.434783,-0.069565,-10.504348,989.608,0,-0.005144
21/11/2018,59:01.0,59.1000061,-75.69667679,45.38396211,0.9027,-4.7443,101.8887,14.330435,11.408695,-15.373913,989.75,0,0
21/11/2018,59:02.0,59.1000061,-75.69667679,45.38396211,2.8162,-2.5994,101.5752,30.4,-5.495652,-3.895652,989.541,0.005144,0.005144
21/11/2018,59:03.0,59.1000061,-75.69667679,45.38396211,0.2088,-5.856,101.4854,14.53913,4.034782,-5.008696,989.541,0,-0.005144
21/11/2018,59:04.0,59.1000061,-75.69667679,45.38396211,0.8749,-4.8176,101.3099,30.052174,11.060869,-10.295652,989.24,0.005144,0.005144
21/11/2018,59:05.0,59.1000061,-75.69667679,45.38396211,1.7754,-1.5534,101.6664,9.46087,-16.347826,-27.826086,989.265,0.005144,0
21/11/2018,59:06.0,59.1000061,-75.69667679,45.38396211,1.9996,-4.4471,101.8058,14.121739,1.113043,-11.478261,989.304,0.005144,0
21/11/2018,59:07.0,59.1000061,-75.69667679,45.38396211,2.3626,-3.868,101.4854,5.147826,-14.747826,-4.104348,989.34,0,-0.005144
21/11/2018,59:08.0,59.1000061,-75.69667679,45.38396211,1.9977,-5.1109,101.5301,10.782609,-0.13913,0.13913,989.411,0.005144,0.005144
21/11/2018,59:09.0,59.1000061,-75.69667679,45.38396211,-0.2217,-3.3274,101.6206,17.73913,-9.252174,4.730435,989.411,0.005144,0
21/11/2018,59:10.0,59.1000061,-75.69667679,45.38396211,1.3505,-3.6034,98.2413,3.130435,-7.652174,1.182609,989.613,0.005144,0
21/11/2018,59:11.0,59.1000061,-75.69667679,45.38396211,0.8564,-3.8564,101.4854,28.313044,-12.452174,0,989.504,0.005144,0
21/11/2018,59:12.0,59.1000061,-75.69667679,45.38396211,1.6925,-4.2345,101.5752,20.869566,-3.617391,5.913043,989.504,0.005144,0
21/11/2018,59:13.0,59.1000061,-75.69667679,45.38396211,0.4386,-2.6324,101.8421,19.269566,-2.434783,-5.704348,989.654,0,-0.005144
21/11/2018,59:14.0,59.1000061,-75.69667679,45.38396211,2.6064,-3.9112,101.5301,32.695652,-1.6,0,989.89,0.005144,0.005144
21/11/2018,59:15.0,59.1000061,-75.69667679,45.38396211,3.1135,-3.1135,101.5301,48.13913,0,-2.782609,989.664,0.005144,0
21/11/2018,59:16.0,59.1000061,-75.69667679,45.38396211,2.6016,-1.5173,101.8887,27.060869,-13.843478,-9.252174,989.704,0.005144,0
21/11/2018,59:17.0,59.1000061,-75.69667679,45.38396211,2.1175,-5.9384,101.5301,12.66087,2.921739,1.947826,989.154,0,-0.005144
21/11/2018,59:18.0,59.1000061,-75.69667679,45.38396211,-0.216,-2.5927,101.4854,23.652174,-2.226087,-16.208696,989.154,0,0
21/11/2018,59:19.0,59.1000061,-75.69667679,45.38396211,3.3706,-6.3292,101.5752,20.730434,-1.73913,2.017391,989.387,0.005144,0.005144
21/11/2018,59:20.0,59.1000061,-75.69667679,45.38396211,1.6441,-4.1132,101.5301,8,-11.2,-8.834783,989.49,0.005144,0
21/11/2018,59:21.0,59.1000061,-75.69667679,45.38396211,1.3127,-4.5989,101.5752,17.669565,7.860869,-8.834783,989.183,0,-0.005144
21/11/2018,59:22.0,59.1000061,-75.69667679,45.38396211,1.8869,-2.0967,101.75,20.452173,-1.252174,-33.18261,989.183,0,0
21/11/2018,59:23.0,59.1000061,-75.69667679,45.38396211,1.7654,-3.7536,101.5752,20.382608,5.008696,-0.13913,989.348,0.005144,0.005144
21/11/2018,59:24.0,59.1000061,-75.69667679,45.38396211,1.5523,-5.7747,101.7959,29.913044,16.347826,-4.8,989.348,0,-0.005144
21/11/2018,59:25.0,59.1000061,-75.69666917,45.38396211,2.3153,-5.0568,102.0632,32.417393,2.156522,-11.130435,989.348,0.005144,0.005144
21/11/2018,59:26.0,59,-75.69666917,45.38396211,3.1057,-5.1065,101.57,39.443478,3.269565,-8.904347,989.154,0.005144,0
21/11/2018,59:27.0,59,-75.69666917,45.38396211,0.2093,-4.3987,101.441,32.417393,1.73913,-10.782609,989.154,0,-0.005144
21/11/2018,59:28.0,59,-75.69666917,45.38396211,0,-3.9153,101.441,24.486956,-11.965218,-17.18261,989.567,0,0
21/11/2018,59:29.0,59,-75.69666917,45.38396211,2.7167,-4.8103,101.5752,2.991304,-2.295652,-2.156522,989.567,0.005144,0.005144
21/11/2018,59:30.0,59,-75.69666917,45.38396211,-0.216,-5.6246,100.568,0,-11.756522,-6.817391,989.567,0.005144,0
21/11/2018,59:31.0,59,-75.69666917,45.38396211,1.9359,-2.5815,101.9695,21.426086,-8.765218,-9.669565,989.317,0.005144,0
21/11/2018,59:32.0,59,-75.69666917,45.38396211,3.389,-2.1174,101.4854,19.617392,-4.591304,-2.713043,989.791,0.005144,0
21/11/2018,59:33.0,59,-75.69666917,45.38396211,-1.7221,-5.1726,101.4854,23.652174,6.53913,-19.33913,989.791,0.005144,0
21/11/2018,59:34.0,59,-75.69666917,45.38396211,-2.7051,-1.8724,101.6593,18.434782,-10.365217,-20.034782,989.182,0.005144,0
21/11/2018,59:35.0,59,-75.69666917,45.38396211,4.4306,-5.3191,101.9695,21.426086,-17.043478,-6.191304,989.322,0,-0.005144
21/11/2018,59:36.0,59,-75.69666917,45.38396211,0.8243,-0.8243,101.8421,15.234782,-16,-1.391304,989.581,0,0
21/11/2018,59:37.0,59,-75.69666917,45.38396211,1.3031,-4.3476,101.7045,11.686956,2.017391,0.347826,989.581,0,0
21/11/2018,59:38.0,59,-75.69666917,45.38396211,0.4318,-3.024,101.6145,4.591304,-15.095653,-22.956522,989.581,0,0
21/11/2018,59:39.0,59,-75.69666917,45.38396211,0.4204,-3.786,101.7959,29.426086,0.069565,-7.095652,989.581,0.005144,0.005144
21/11/2018,59:40.0,59,-75.69666917,45.38396211,-1.3131,-4.3808,101.397,20.034782,0.486957,-16.626087,989.821,0,-0.005144
21/11/2018,59:41.0,59,-75.69666917,45.38396211,1.31,-3.0579,101.4854,25.947826,2.852174,-23.513044,989.821,0,0
21/11/2018,59:42.0,59,-75.69666917,45.38396211,0.8541,-2.7768,101.397,29.913044,-14.26087,-1.530435,989.724,0,0
21/11/2018,59:43.0,59,-75.69666917,45.38396211,1.2566,-3.5624,101.441,22.539131,-18.504349,-22.81739,989.724,0.005144,0.005144
21/11/2018,59:44.0,59,-75.69666917,45.38396211,1.9525,-4.995,97.0676,29.913044,-11.269566,-0.486957,989.724,0.005144,0
21/11/2018,59:45.0,59,-75.69666917,45.38396211,-0.6627,-3.0939,101.0515,22.26087,-4.8,-13.913043,989.1608,0.005144,0
21/11/2018,59:46.0,59,-75.69666917,45.38396211,0,-5.4923,101.7959,5.217391,0.208696,-6.886957,989.1608,0.005144,0
21/11/2018,59:47.0,59,-75.69666917,45.38396211,-3.0005,-1.4997,101.6593,24.347826,14.121739,-7.582609,989.1608,0.005144,0
21/11/2018,59:48.0,59,-75.69666917,45.38396211,1.9637,-3.4926,101.7045,9.878261,5.008696,5.147826,989.1122,0.005144,0
21/11/2018,59:49.0,59,-75.69666917,45.38396211,-1.5393,-3.5202,101.8772,22.747826,-11.965218,-3.33913,989.1481,0.005144,0
21/11/2018,59:50.0,59,-75.69666917,45.38396211,-0.2255,-5.4189,101.441,18.365217,9.252174,-18.713043,989.839,0.005144,0
21/11/2018,59:51.0,59,-75.69666917,45.38396211,2.6197,-2.6197,102.1415,33.669567,-0.556522,-23.791304,989.839,0.005144,0
21/11/2018,59:52.0,59,-75.69666917,45.38396211,2.9485,-4.4252,101.6593,25.252174,3.33913,-15.582608,989.757,0.005144,0
21/11/2018,59:53.0,59,-75.69666917,45.38396211,0.846,-4.6577,101.6145,18.086956,-10.226087,-9.530435,989.757,0.005144,0
21/11/2018,59:54.0,59,-75.69666917,45.38396211,2.6506,-5.5287,101.441,21.495651,-15.234782,2.086957,989.1102,0,-0.005144
21/11/2018,59:55.0,59,-75.69666917,45.38396211,2.2176,-2.4395,101.8772,25.808695,-15.304348,-4.93913,989.1169,0.005144,0.005144
21/11/2018,59:56.0,59,-75.69666917,45.38396211,2.6255,-4.1592,101.6145,26.713043,-15.930435,2.782609,989.1384,0.005144,0
21/11/2018,59:57.0,59,-75.69666917,45.38396211,1.9748,-5.0523,102.0162,10.504348,-1.391304,-2.086957,989.152,0,-0.005144
21/11/2018,59:58.0,59,-75.69666917,45.38396211,2.5813,-5.3838,101.6593,28.173914,-3.547826,-13.843478,989.152,0.005144,0.005144
21/11/2018,59:59.0,59,-75.69666917,45.38396211,0.4018,-2.0095,101.75,22.956522,2.434783,-17.252174,989.1132,0.005144,0
21/11/2018,00:00.0,59,-75.69666917,45.38396211,2.2064,-3.7526,101.6593,43.547825,3.478261,-16.347826,989.1414,0,-0.005144
21/11/2018,00:01.0,59,-75.69666917,45.38396211,-0.2111,-3.3788,102.2361,15.373913,11.130435,-26.434782,989.1414,0,0
21/11/2018,00:02.0,59,-75.69666917,45.38396211,2.4306,-4.0531,101.9695,30.469564,0.695652,-25.669565,989.1414,0,0
21/11/2018,00:03.0,58.8999939,-75.69666917,45.38396211,3.6591,-4.5217,101.6145,26.852175,-2.921739,-6.53913,989.893,0.005144,0.005144
21/11/2018,00:04.0,58.8999939,-75.69666917,45.38396211,1.2438,-2.9031,101.7045,34.226086,-6.052174,-0.626087,989.135,0,-0.005144
21/11/2018,00:05.0,58.8999939,-75.69666917,45.38396211,0,-1.8813,101.8316,32.556522,-6.052174,8.139131,989.1267,0,0
21/11/2018,00:06.0,58.8999939,-75.69666917,45.38396211,1.7114,-4.2819,101.6593,23.930435,9.947826,-16.834784,989.1573,0.005144,0.005144
21/11/2018,00:07.0,58.8999939,-75.69666917,45.38396211,0.4223,-2.9572,101.9695,30.539131,-6.469565,-0.347826,989.1573,0.005144,0
21/11/2018,00:08.0,58.8999939,-75.69666917,45.38396211,1.2487,-2.498,101.6145,5.913043,-1.252174,-13.982609,989.1573,0.005144,0
21/11/2018,00:09.0,58.8999939,-75.69666917,45.38396211,2.1332,-5.9825,101.7863,27.756521,-0.417391,-20.173914,989.1573,0.005144,0
21/11/2018,00:10.0,58.8999939,-75.69666917,45.38396211,3.0828,-5.968,101.9232,25.947826,-5.843478,7.513043,989.1573,0,-0.005144
21/11/2018,00:11.0,58.8999939,-75.69666917,45.38396211,2.5136,-2.9328,101.9232,25.043478,-10.156522,-19.130434,989.1084,0.005144,0.005144
21/11/2018,00:12.0,58.8999939,-75.69666917,45.38396211,1.9451,-0.4322,101.8316,25.043478,-4.173913,-5.634783,989.1031,0.005144,0
21/11/2018,00:13.0,58.8999939,-75.69666917,45.38396211,0.8376,-3.7719,101.6593,13.565217,7.165217,7.443478,989.1277,0,-0.005144
21/11/2018,00:14.0,58.8999939,-75.69666917,45.38396211,-1.0765,-1.5072,101.57,20.034782,-5.147826,-19.826086,989.1277,0.005144,0.005144
21/11/2018,00:15.0,58.8999939,-75.69666917,45.38396211,5.0251,-2.2818,101.8316,24.626087,-6.4,-9.669565,989.1277,0.005144,0
21/11/2018,00:16.0,58.8999939,-75.69666917,45.38396211,3.0293,-3.6793,101.9695,4.730435,-12.313044,-15.860869,989.1277,0,-0.005144
21/11/2018,00:17.0,58.8999939,-75.69666917,45.38396211,0,-4.2364,101.8316,39.86087,1.878261,-14.956522,989.1277,0.005144,0.005144
21/11/2018,00:18.0,58.8999939,-75.69666917,45.38396211,0.852,-4.9046,101.7863,9.043478,2.156522,-21.565218,989.174,0.005144,0
21/11/2018,00:19.0,58.8999939,-75.69666917,45.38396211,1.0923,-2.4037,101.6968,20.104347,-9.252174,-19.060869,989.1205,0.005144,0
21/11/2018,00:20.0,58.8999939,-75.69666917,45.38396211,2.8027,-3.6662,101.7045,32.765217,6.886957,-10.713043,989.1873,0,-0.005144
21/11/2018,00:21.0,58.8999939,-75.69666917,45.38396211,1.9416,-3.4532,101.8772,22.81739,0.765217,-9.878261,989.1873,0.005144,0.005144
21/11/2018,00:22.0,58.8999939,-75.69666917,45.38396211,0.6272,-5.0238,101.6593,33.808697,-15.652174,-7.791304,989.1873,0.005144,0
21/11/2018,00:23.0,58.8999939,-75.69666917,45.38396211,2.3549,-3.4265,101.8772,20.243479,-1.391304,11.2,989.1921,0.005144,0
21/11/2018,00:24.0,58.8999939,-75.69666917,45.38396211,0.4249,-4.0401,101.9232,29.217392,-4.869565,-14.26087,989.1764,0.005144,0
21/11/2018,00:25.0,58.8999939,-75.69666917,45.38396211,1.9469,-4.3298,101.57,31.304348,-6.678261,-14.26087,989.1941,0.005144,0
21/11/2018,00:26.0,58.8999939,-75.69666917,45.38396211,3.7797,-2.8895,101.9695,24.208696,10.156522,-6.747826,989.187,0.005144,0
21/11/2018,00:27.0,58.8999939,-75.69666917,45.38396211,1.4831,-2.9672,102.0023,22.191305,3.756522,-13.704348,989.14,0,-0.005144
21/11/2018,00:28.0,58.8999939,-75.69666917,45.38396211,2.3804,-3.8971,101.7863,16.278261,-18.434782,-13.704348,989.1681,0.005144,0.005144
21/11/2018,00:29.0,58.8999939,-75.69666917,45.38396211,1.7252,-3.8841,101.6593,32.13913,3.756522,-5.495652,989.2076,0,-0.005144
21/11/2018,00:30.0,58.80000305,-75.69666917,45.38396211,1.5304,0,101.7863,2.991304,-7.860869,-19.060869,989.1723,0,0
21/11/2018,00:31.0,58.80000305,-75.69666917,45.38396211,2.7249,-5.2454,102.1886,31.513044,-4.173913,8.973913,989.2045,0,0
21/11/2018,00:32.0,58.80000305,-75.69666917,45.38396211,0.8367,-4.6068,102.0948,7.165217,1.878261,-14.052174,989.1844,0.005144,0.005144
21/11/2018,00:33.0,58.80000305,-75.69666917,45.38396211,1.5222,-3.2631,101.7414,23.443478,-11.408695,-2.782609,989.129,0,-0.005144
21/11/2018,00:34.0,58.80000305,-75.69666917,45.38396211,2.6309,-1.9729,101.5258,24.208696,3.408696,-13.426087,989.129,0,0
21/11/2018,00:35.0,58.80000305,-75.69666917,45.38396211,3.9638,-4.405,101.9566,21.356522,11.130435,-14.052174,989.1518,0,0
21/11/2018,00:36.0,58.80000305,-75.69666917,45.38396211,0.4254,-2.9792,101.8316,18.991304,-20.799999,1.947826,989.1481,0.005144,0.005144
21/11/2018,00:37.0,58.80000305,-75.69666917,45.38396211,0,-3.1798,101.7863,41.321739,1.947826,3.686956,989.1481,0.005144,0
21/11/2018,00:38.0,58.80000305,-75.69666917,45.38396211,2.296,-2.9226,102.1415,25.321739,-7.373913,1.321739,989.1481,0,-0.005144
21/11/2018,00:39.0,58.80000305,-75.69666917,45.38396211,1.55,-4.2103,101.8316,29.217392,-11.686956,7.026087,989.1481,0,0
21/11/2018,00:40.0,58.80000305,-75.69666917,45.38396211,4.1111,-2.4653,102.0023,3.130435,1.73913,-5.913043,989.1481,0.005144,0.005144
21/11/2018,00:41.0,58.80000305,-75.69666917,45.38396211,1.9175,-4.4779,101.57,28.452173,-0.347826,0.556522,989.1476,0.005144,0
21/11/2018,00:42.0,58.80000305,-75.69666917,45.38396211,2.4301,-2.2091,102.0483,19.547827,-8,-13.913043,989.1476,0,-0.005144
21/11/2018,00:43.0,58.80000305,-75.69666917,45.38396211,0.4332,-3.6843,101.1842,32.417393,13.07826,-4.869565,989.159,0.005144,0.005144
21/11/2018,00:44.0,58.80000305,-75.69666917,45.38396211,0,-2.0826,101.9566,24.278261,0.695652,-9.113044,989.159,0,-0.005144
21/11/2018,00:45.0,58.80000305,-75.69666917,45.38396211,3.6768,-3.6768,101.8316,32.556522,7.443478,-14.121739,989.1224,0.005144,0.005144
21/11/2018,00:46.0,58.80000305,-75.69666917,45.38396211,1.8504,-3.7027,101.6145,30.539131,-9.182609,7.652174,989.1224,0.005144,0
21/11/2018,00:47.0,58.80000305,-75.69666917,45.38396211,2.3614,-4.2962,101.7414,20.799999,-9.46087,-13.704348,989.1923,0,-0.005144
21/11/2018,00:48.0,58.80000305,-75.69666917,45.38396211,1.706,-3.8407,100.7843,34.713043,-0.278261,-3.826087,989.1923,0.005144,0.005144
21/11/2018,00:49.0,58.80000305,-75.69666917,45.38396211,1.0586,-3.8134,101.8316,5.773913,1.878261,-5.217391,989.1923,0.005144,0
21/11/2018,00:50.0,58.80000305,-75.69666917,45.38396211,2.4981,-5.0011,101.5258,26.226088,-15.791305,-14.121739,989.1923,0,-0.005144
21/11/2018,00:51.0,58.80000305,-75.69666917,45.38396211,0.8478,-2.7563,102.2648,15.791305,-13.286957,-10.086957,989.1923,0,0
21/11/2018,00:52.0,58.80000305,-75.69666917,45.38396211,-0.2123,-4.4638,101.8316,31.582609,13.704348,-22.956522,989.2329,0,0
21/11/2018,00:53.0,58.69999695,-75.69666917,45.38396211,3.784,-1.891,101.6029,25.878262,-2.434783,-28.799999,989.2329,0.005144,0.005144
21/11/2018,00:54.0,58.69999695,-75.69666917,45.38396211,-0.4279,-4.497,101.7414,31.791304,-10.504348,18.643478,989.2329,0,-0.005144
21/11/2018,00:55.0,58.69999695,-75.69666917,45.38396211,-0.4149,-2.075,102.0023,12.591305,-10.226087,-0.417391,989.1806,0,0
21/11/2018,00:56.0,58.69999695,-75.69666917,45.38396211,3.1263,-5.8131,101.6968,19.408695,10.226087,-6.678261,989.1535,0.005144,0.005144
21/11/2018,00:57.0,58.69999695,-75.69666917,45.38396211,0.4277,-4.7102,101.7414,22.539131,-2.713043,-11.478261,989.159,0.010289,0.005144
21/11/2018,00:58.0,58.69999695,-75.69666917,45.38396211,1.5462,-2.8724,101.9112,6.956522,-2.782609,-6.191304,989.1954,0.005144,-0.005144
21/11/2018,00:59.0,58.69999695,-75.69666917,45.38396211,0.6591,-4.3984,101.7863,45.078262,-2.434783,-2.017391,989.1954,0.005144,0
21/11/2018,01:00.0,58.69999695,-75.69666917,45.38396211,0.2206,-4.4156,102.2648,21.426086,-0.486957,0.13913,989.1954,0.005144,0
21/11/2018,01:01.0,58.69999695,-75.69666917,45.38396211,1.9464,-4.5454,101.565,27.547827,-4.382609,-2.921739,989.187,0,-0.005144
21/11/2018,01:02.0,58.69999695,-75.69666917,45.38396211,1.4603,-3.7573,101.7414,24.834784,-4.104348,4.730435,989.2082,0,0
21/11/2018,01:03.0,58.69999695,-75.69666917,45.38396211,0,-5.2901,101.9112,2.991304,-6.052174,-15.095653,989.1913,0.005144,0.005144
21/11/2018,01:04.0,58.69999695,-75.69666917,45.38396211,1.2692,-4.4463,101.6968,32.417393,-5.843478,-18.365217,989.1913,0.005144,0
21/11/2018,01:05.0,58.69999695,-75.69666917,45.38396211,1.6654,-1.8737,101.7863,32,12.521739,5.495652,989.1913,0,-0.005144
21/11/2018,01:06.0,58.69999695,-75.69666917,45.38396211,1.6571,-3.5232,101.7331,22.747826,-9.321739,-7.513043,989.2478,0.005144,0.005144
21/11/2018,01:07.0,58.69999695,-75.69666917,45.38396211,4.6959,-4.482,101.7414,41.321739,-8.904347,-0.347826,989.2224,0.005144,0
21/11/2018,01:08.0,58.69999695,-75.69666917,45.38396211,1.944,-1.944,101.7414,30.191305,-5.843478,-10.504348,989.1926,0.005144,0
21/11/2018,01:09.0,58.69999695,-75.69666917,45.38396211,1.9034,-4.4449,102.0023,21.356522,-29.982609,-8.278261,989.1926,0.005144,0
21/11/2018,01:10.0,58.69999695,-75.69666917,45.38396211,0.8222,-4.1145,101.6968,18.573914,5.495652,-11.826087,989.1926,0,-0.005144
21/11/2018,01:11.0,58.69999695,-75.69666917,45.38396211,0.6423,-3.8566,102.1253,38.260868,-1.530435,-5.495652,989.2427,0.005144,0.005144
21/11/2018,01:12.0,58.69999695,-75.69666917,45.38396211,-0.8695,-3.698,102.3595,25.252174,-16.765217,-17.808695,989.2589,0,-0.005144
21/11/2018,01:13.0,58.69999695,-75.69666917,45.38396211,-0.2102,-3.7861,101.9112,23.513044,0.834783,1.252174,989.2589,0.005144,0.005144
21/11/2018,01:14.0,58.69999695,-75.69666917,45.38396211,2.4301,-2.2091,101.6968,30.81739,-17.043478,-7.791304,989.2589,0.005144,0
21/11/2018,01:15.0,58.6000061,-75.69666917,45.38396211,3.6705,-4.9689,101.8316,33.113045,-9.321739,3.408696,989.2229,0.005144,0
21/11/2018,01:16.0,58.6000061,-75.69666917,45.38396211,1.094,-4.5993,101.7414,25.043478,3.408696,-10.156522,989.2229,0,-0.005144
21/11/2018,01:17.0,58.6000061,-75.69666917,45.38396211,1.0922,-2.6219,101.9112,21.07826,14.469565,-3.547826,989.2229,0.005144,0.005144
21/11/2018,01:18.0,58.6000061,-75.69666917,45.38396211,2.9885,-5.3419,101.6968,0.278261,-1.878261,-3.060869,989.2227,0.005144,0
21/11/2018,01:19.0,58.6000061,-75.69666917,45.38396211,-0.8574,-2.5731,101.8662,15.095653,5.008696,14.886956,989.2227,0.005144,0
21/11/2018,01:20.0,58.6000061,-75.69666917,45.38396211,0.8062,-2.4193,101.8662,17.878262,-12.730434,-17.391304,989.2227,0,-0.005144
21/11/2018,01:21.0,58.6000061,-75.69666917,45.38396211,2.1989,-3.2994,102.1253,2.573913,-22.81739,-9.391304,989.2368,0,0
21/11/2018,01:22.0,58.6000061,-75.69666917,45.38396211,-1.5164,-3.2508,102.0483,21.356522,-12.452174,-4.93913,989.2412,0,0
21/11/2018,01:23.0,58.6000061,-75.69666917,45.38396211,0.2178,-1.7423,101.9112,52.38261,9.530435,-7.443478,989.2412,0.010289,0.010289
21/11/2018,01:24.0,58.6000061,-75.69666917,45.38396211,-0.2088,-3.3419,101.6968,32.904346,-6.052174,14.121739,989.2412,0,-0.010289
21/11/2018,01:25.0,58.6000061,-75.69666917,45.38396211,0.4371,-1.9673,101.6968,10.573913,15.513043,-2.713043,989.2412,0.005144,0.005144
21/11/2018,01:26.0,58.6000061,-75.69666917,45.38396211,0.6356,-3.1796,102.0023,24.695652,-14.53913,-2.156522,989.2361,0.005144,0
21/11/2018,01:27.0,58.6000061,-75.69666917,45.38396211,0.4336,-2.6025,101.9566,42.226086,1.947826,-7.026087,989.2066,0,-0.005144
21/11/2018,01:28.0,58.6000061,-75.69666917,45.38396211,0.2082,-5.4206,101.9566,37.495651,-5.217391,7.791304,989.2245,0.005144,0.005144
21/11/2018,01:29.0,58.6000061,-75.69666917,45.38396211,1.7148,-2.3581,101.9112,21.634783,0,-24.695652,989.2303,0.005144,0
21/11/2018,01:30.0,58.6000061,-75.69666917,45.38396211,2.3804,-3.8971,101.7414,1.669565,-10.713043,-17.113043,989.2621,0.005144,0
21/11/2018,01:31.0,58.6000061,-75.69666917,45.38396211,3.4381,-2.7929,101.8662,11.617392,-10.643478,14.608696,989.2621,0.005144,0
21/11/2018,01:32.0,58.6000061,-75.69666917,45.38396211,0.2088,-3.3419,101.7414,29.913044,5.356522,-20.730434,989.3061,0.005144,0
21/11/2018,01:33.0,58.6000061,-75.69666917,45.38396211,0,-2.7566,101.8662,19.408695,-5.634783,-6.956522,989.2656,0.005144,0
21/11/2018,01:34.0,58.6000061,-75.69666917,45.38396211,2.5247,-1.8933,102.0483,17.321739,-6.330435,-11.060869,989.2287,0,-0.005144
21/11/2018,01:35.0,58.6000061,-75.69666917,45.38396211,2.2698,-3.5092,102.1715,22.121738,-4.93913,-18.573914,989.2287,0.005144,0.005144
21/11/2018,01:36.0,58.6000061,-75.69666917,45.38396211,1.9554,-3.913,101.6968,34.365219,-7.930435,-8.556521,989.2287,0,-0.005144
21/11/2018,01:37.0,58.6000061,-75.69666917,45.38396211,1.7395,-3.2628,102.1715,22.678261,-1.530435,-1.669565,989.2736,0.005144,0.005144
21/11/2018,01:38.0,58.5,-75.69666917,45.38396211,2.5693,-3.2122,102.1253,44.452175,-17.73913,-10.086957,989.2615,0,-0.005144
21/11/2018,01:39.0,58.5,-75.69666917,45.38396211,0,-4.1165,102.0341,22.469564,-5.913043,-3.826087,989.2484,0,0
21/11/2018,01:40.0,58.5,-75.69666917,45.38396211,0.6608,-5.2938,102.0483,21.773912,-5.634783,0.695652,989.2741,0.010289,0.010289
21/11/2018,01:41.0,58.5,-75.69666917,45.38396211,3.3861,-3.1743,102.1253,27.200001,-0.834783,-1.947826,989.2431,0.005144,-0.005144
21/11/2018,01:42.0,58.5,-75.69666917,45.38396211,1.2006,-2.602,102.386,23.026087,-13.426087,-7.791304,989.2715,0,-0.005144
21/11/2018,01:43.0,58.5,-75.69666917,45.38396211,3.0543,-3.0543,101.8662,24.556522,-0.417391,-4.243478,989.2715,0,0
21/11/2018,01:44.0,58.5,-75.69666917,45.38396211,1.4928,-3.8411,101.482,22.4,-10.713043,-16.834784,989.2959,0,0
21/11/2018,01:45.0,58.5,-75.69666917,45.38396211,0.8475,-3.1795,101.8662,7.304348,-7.443478,-10.434783,989.3193,0,0
21/11/2018,01:46.0,58.5,-75.69666917,45.38396211,0.6365,-1.0608,101.8215,40.695652,10.365217,9.321739,989.2811,0,0
21/11/2018,01:47.0,58.5,-75.69666917,45.38396211,0.8841,-5.534,102.0948,26.434782,0.765217,-25.460869,989.2464,0.005144,0.005144
21/11/2018,01:48.0,58.5,-75.69666917,45.38396211,0.415,-5.1943,101.8662,0.278261,4.66087,-7.165217,989.3048,0.005144,0
21/11/2018,01:49.0,58.5,-75.69666917,45.38396211,1.7368,-4.5632,101.6525,18.991304,-14.956522,-16.417391,989.2718,0,-0.005144
21/11/2018,01:50.0,58.5,-75.69666917,45.38396211,3.3037,-2.0641,102.0023,33.18261,-8.486957,-4.591304,989.2718,0,0
21/11/2018,01:51.0,58.5,-75.69666917,45.38396211,-0.8442,-3.3785,101.9112,19.33913,7.930435,-3.478261,989.2718,0.005144,0.005144
21/11/2018,01:52.0,58.5,-75.69666917,45.38396211,2.2408,-5.0983,102.1253,33.669567,1.947826,-5.773913,989.2718,0.005144,0
21/11/2018,01:53.0,58.5,-75.69666917,45.38396211,0.8337,-4.5901,102.0948,28.799999,1.73913,-9.6,989.2718,0,-0.005144
21/11/2018,01:54.0,58.5,-75.69666917,45.38396211,2.2853,-3.887,102.2648,9.73913,-13.913043,0.626087,989.2718,0.005144,0.005144
21/11/2018,01:55.0,58.5,-75.69666917,45.38396211,2.1027,-2.9445,101.8215,49.599998,-13.704348,-6.330435,989.2711,0.005144,0
21/11/2018,01:56.0,58.5,-75.69666917,45.38396211,1.2853,-3.2147,101.8215,31.165216,-5.565217,-15.582608,989.2696,0,-0.005144
21/11/2018,01:57.0,58.5,-75.69666917,45.38396211,-1.7598,-3.0807,101.8662,25.6,-8.347826,0.486957,989.2696,0,0
21/11/2018,01:58.0,58.5,-75.69666917,45.38396211,-0.4306,-1.5074,102.1253,32.13913,-0.834783,3.895652,989.2207,0,0
21/11/2018,01:59.0,58.5,-75.69666917,45.38396211,2.6297,-2.6297,101.8662,23.026087,-2.086957,16.626087,989.2554,0.005144,0.005144
21/11/2018,02:00.0,58.5,-75.69666917,45.38396211,1.4743,-4.8495,102.2179,9.252174,-1.73913,10.782609,989.2554,0.010289,0.005144
21/11/2018,02:01.0,58.5,-75.69666917,45.38396211,2.9546,-5.4931,102.0341,31.095652,-7.930435,4.8,989.2537,0,-0.010289
21/11/2018,02:02.0,58.3999939,-75.69666917,45.38396211,0.8738,-2.6221,102.1253,27.269566,0.208696,6.747826,989.2921,0.005144,0.005144
21/11/2018,02:03.0,58.3999939,-75.69666917,45.38396211,1.4632,-1.0451,102.386,18.852175,-1.530435,-4.382609,989.2702,0.005144,0
21/11/2018,02:04.0,58.3999939,-75.69666917,45.38396211,0.8102,-4.4604,102.2648,26.92174,-12.243478,-8.347826,989.2702,0.005144,0
21/11/2018,02:05.0,58.3999939,-75.69666917,45.38396211,2.7282,-4.4098,101.8215,33.739132,-10.017391,6.052174,989.267,0.005144,0
21/11/2018,02:06.0,58.3999939,-75.69666917,45.38396211,1.4958,-5.1346,98.4694,26.643478,-3.33913,3.269565,989.2489,0.005144,0
21/11/2018,02:07.0,58.3999939,-75.69666917,45.38396211,0.2187,-0.8747,101.3057,31.165216,-1.321739,-5.982609,989.2558,0,-0.005144
21/11/2018,02:08.0,58.3999939,-75.69666917,45.38396211,3.1318,-1.8785,102.4808,44.869564,4.66087,-13.704348,989.2537,0.005144,0.005144
21/11/2018,02:09.0,58.3999939,-75.69666917,45.38396211,0.8637,-2.8082,102.1715,27.965218,-4.243478,-18.017391,989.2547,0.005144,0
21/11/2018,02:10.0,58.3999939,-75.69666917,45.38396211,3.0051,-4.08,101.565,39.791306,-9.252174,-2.643478,989.2547,0.005144,0
21/11/2018,02:11.0,58.3999939,-75.69666917,45.38396211,1.4897,-5.3275,102.0341,48.13913,-10.782609,-7.234783,989.236,0,-0.005144
21/11/2018,02:12.0,58.3999939,-75.69666917,45.38396211,3.0269,-4.3263,102.0341,32.765217,-10.017391,3.617391,989.236,0,0
21/11/2018,02:13.0,58.3999939,-75.69666917,45.38396211,0.2153,-1.7226,101.9566,24.069565,2.156522,20.452173,989.256,0.005144,0.005144
21/11/2018,02:14.0,58.3999939,-75.69666917,45.38396211,4.289,-4.0742,102.4332,2.017391,-6.956522,-3.478261,989.256,0.005144,0
21/11/2018,02:15.0,58.3999939,-75.69666917,45.38396211,0,-7.0407,102.0341,27.060869,-9.73913,-12.382608,989.256,0.010289,0.005144
21/11/2018,02:16.0,58.3999939,-75.69666917,45.38396211,2.5603,-2.9874,102.3391,20.939131,-1.182609,-0.347826,989.256,0,-0.010289
21/11/2018,02:17.0,58.3999939,-75.69666917,45.38396211,1.7173,-4.512,102.0341,26.226088,-9.252174,-3.895652,989.2315,0,0
21/11/2018,02:18.0,58.3999939,-75.69666917,45.38396211,1.7657,-6.191,102.1253,24.486956,-3.33913,10.295652,989.2815,0.005144,0.005144
21/11/2018,02:19.0,58.3999939,-75.69666917,45.38396211,1.7582,-3.9584,101.8662,33.530434,-13.773913,4.591304,989.2815,0.005144,0
21/11/2018,02:20.0,58.3999939,-75.69666917,45.38396211,3.5744,-1.8914,101.7331,19.686956,2.921739,-6.330435,989.275,0,-0.005144
21/11/2018,02:21.0,58.3999939,-75.69666917,45.38396211,2.8788,-3.0846,102.2179,34.226086,6.191304,10.365217,989.275,0,0
21/11/2018,02:22.0,58.3999939,-75.69666917,45.38396211,1.889,-4.6216,102.0795,21.356522,-9.947826,1.878261,989.2619,0.005144,0.005144
21/11/2018,02:23.0,58.30000305,-75.69666917,45.38396211,0,-2.583,101.8662,19.408695,1.808696,-4.104348,989.2656,0,-0.005144
21/11/2018,02:24.0,58.30000305,-75.69666917,45.38396211,0.8865,-3.5483,102.1715,30.4,-12.313044,-1.46087,989.2644,0.005144,0.005144
21/11/2018,02:25.0,58.30000305,-75.69666917,45.38396211,2.0974,-5.0391,101.6397,12.869565,7.443478,6.4,989.2691,0,-0.005144
21/11/2018,02:26.0,58.30000305,-75.69666917,45.38396211,2.4577,-3.688,102.0795,8.904347,0.556522,-26.295652,989.2788,0,0
21/11/2018,02:27.0,58.30000305,-75.69666917,45.38396211,2.9193,-6.0557,102.4332,29.07826,-16.973913,-14.886956,989.2788,0.005144,0.005144
21/11/2018,02:28.0,58.30000305,-75.69666917,45.38396211,0.6526,-3.0469,102.0795,4.66087,10.713043,17.252174,989.2806,0,-0.005144
21/11/2018,02:29.0,58.30000305,-75.69666917,45.38396211,5.3542,-5.7674,102.6056,31.373913,14.26087,2.365217,989.2212,0,0
21/11/2018,02:30.0,58.30000305,-75.69666917,45.38396211,-16.764,-53.0091,101.0515,-11.617392,-47.165218,15.304348,989.2212,0,0
21/11/2018,02:31.0,58.1000061,-75.69666917,45.38396211,-34.8213,-9.3151,101.8772,98.017395,-25.878262,-26.365217,989.2212,0.005144,0.005144
21/11/2018,02:32.0,57.8999939,-75.69666917,45.38396211,-24.0392,10.5861,101.6145,2.852174,14.886956,83.269562,989.2858,0.005144,0
21/11/2018,02:33.0,57.69999695,-75.69666917,45.38396211,20.9191,-10.4801,101.5301,84.243477,0.347826,-40,989.2809,0.005144,0
21/11/2018,02:34.0,57.5,-75.69666917,45.38396211,-78.2295,-168.4154,90.7813,505.878265,563.617371,37.286957,989.2809,0.005144,0
21/11/2018,02:35.0,57.5,-75.69666917,45.38396211,-14.8093,23.6821,81.4897,-1.669565,125.704346,-93.286957,989.2809,0.102888,0.097744
21/11/2018,02:36.0,57.5,-75.69666917,45.38396211,-15.3652,105.3657,82.1139,-75.130432,47.095654,57.530434,989.2203,0.252076,0.149188
21/11/2018,02:37.0,58.19999695,-75.69666917,45.38396211,-47.2662,149.0241,82.7132,-36.52174,-110.81739,27.130434,989.2203,0.246931,-0.005144
21/11/2018,02:38.0,58.8999939,-75.69666154,45.38396211,3.0248,-52.4738,79.9817,192.278259,23.026087,-117.286957,989.2203,0.241787,-0.005144
21/11/2018,02:39.0,60.69999695,-75.69666154,45.38396211,-24.1123,-38.3769,83.6598,184.834778,-47.373913,-254.191299,989.2203,0.226354,-0.015433
21/11/2018,02:40.0,63,-75.69665391,45.38396211,4.5026,23.7802,78.2016,507.756531,114.017395,-80.695656,989.2203,0.354964,0.12861
21/11/2018,02:41.0,65.1000061,-75.69665391,45.38396211,33.3995,0.9359,99.4318,-138.782608,-27.826086,-50.086956,988.2285,1.656497,1.301533
21/11/2018,02:42.0,67.5,-75.69663102,45.383985,30.2584,37.6885,104.2233,-67.269562,38.678261,-163.060867,988.2285,3.657668,2.001172
21/11/2018,02:43.0,70.19999695,-75.69660813,45.38400407,-30.5078,-172.5382,113.363,-212.382614,-25.460869,-113.252174,987.1695,3.64738,-0.010289
21/11/2018,02:44.0,73.6000061,-75.69656998,45.38402696,-19.922,-67.8084,105.7554,116.521736,-197.565216,-90.08696,987.1695,2.150359,-1.497021
21/11/2018,02:45.0,77.3999939,-75.69655472,45.38402696,-11.5423,-107.1187,106.4861,-420.313049,-3.33913,26.782608,986.1767,0.859115,-1.291244
21/11/2018,02:46.0,81.1000061,-75.69654709,45.38402696,22.1551,-13.4905,105.225,74.921738,-27.200001,-86.81739,986.1767,0.46814,-0.390974
21/11/2018,02:47.0,85,-75.69654709,45.38402696,17.7999,-52.8433,104.6904,318.608704,47.513042,151.304352,985.1977,0.246931,-0.221209
21/11/2018,02:48.0,88.80000305,-75.69653947,45.38402696,-2.4874,56.3542,103.5762,350.469574,296.556519,13.217391,985.191,0.12861,-0.118321
21/11/2018,02:49.0,92.5,-75.69653947,45.38402696,20.8795,24.2428,102.2382,-11.33913,48.347828,-151.513046,984.2309,0.12861,0
21/11/2018,02:50.0,96.3999939,-75.69653947,45.38402696,-3.2225,34.6499,103.3842,-230.678268,-242.434784,-38.886955,984.2309,0.133754,0.005144
21/11/2018,02:51.0,100.3999939,-75.69653947,45.38402696,-24.0932,-162.608,100.5929,234.434784,153.252167,-43.756523,983.258,0.550451,0.416696
21/11/2018,02:52.0,104.1000061,-75.69653184,45.38402696,-11.3895,-37.0352,102.1615,392.06958,-108.521736,92.660866,983.258,0.920848,0.370397
21/11/2018,02:53.0,107.8000031,-75.69651658,45.38403459,10.8119,-5.1615,103.5221,-316.382599,-68.939133,87.09565,982.2738,1.507309,0.586462
21/11/2018,02:54.0,111.6000061,-75.69650132,45.38404222,19.5819,20.6698,106.53,-30.4,-185.321732,-95.304344,982.523,1.862273,0.354964
21/11/2018,02:55.0,115.199997,-75.69647843,45.38404985,29.9889,-32.6568,107.2331,362.086945,-127.582611,-75.965218,981.2868,2.119493,0.25722
21/11/2018,02:56.0,118.1000061,-75.69644791,45.38406129,24.2192,5.1964,114.0561,77.495651,47.582607,-315.89566,981.2868,2.109204,-0.010289
21/11/2018,02:57.0,119.8000031,-75.69643265,45.38406892,30.2034,14.0886,130.035,-400.695648,9.391304,-150.469559,981.1439,1.944583,-0.164621
21/11/2018,02:58.0,120.199997,-75.69640977,45.38407655,50.7938,-31.9203,131.465,220.800003,-5.078261,118.330437,981.1527,1.522742,-0.421841
21/11/2018,02:59.0,119.199997,-75.69639451,45.38407655,-7.5299,99.3611,127.3859,-783.165222,-84.521736,24.556522,981.1527,1.136912,-0.38583
21/11/2018,03:00.0,117.3000031,-75.69638688,45.38407655,-3.0824,-18.3737,132.8511,107.617393,101.634781,12.313044,981.3416,0.653339,-0.483574
21/11/2018,03:01.0,116.5,-75.69637925,45.38407655,-5.1346,44.8261,132.8706,-253.356522,116.660866,-172.313049,981.3416,0.555595,-0.097744
21/11/2018,03:02.0,116.699997,-75.69637925,45.38407655,-20.3552,48.7161,127.3172,-783.165222,-357.913055,-70.81739,981.3416,0.226354,-0.329242
21/11/2018,03:03.0,116.8000031,-75.69637925,45.38407655,3.0861,44.9728,124.0042,445.634796,-466.156525,-69.565216,981.3416,0.38583,0.159476
21/11/2018,03:04.0,116.699997,-75.69637162,45.38409181,-40.0536,-155.8924,124.7932,-39.582607,-104.695656,92.382607,981.3416,2.459023,2.073193
21/11/2018,03:05.0,116.6000061,-75.6963411,45.38411851,-42.0156,140.8431,124.8855,9.669565,376.834778,122.643478,981.3416,4.753425,2.294402
21/11/2018,03:06.0,116.3000031,-75.69631058,45.38416429,27.7334,18.1388,125.368,-38.191303,-223.513046,-98.643478,981.3416,6.456222,1.702797
21/11/2018,03:07.0,116,-75.69627244,45.38422151,-16.7217,-123.2075,125.8441,-93.495651,-116.382607,-64.417389,981.2979,7.680589,1.224367
21/11/2018,03:08.0,115.6000061,-75.69623429,45.38427873,21.9283,-2.2179,126.9836,-120.13913,451.82608,356.313049,981.2942,8.416239,0.735649
21/11/2018,03:09.0,115.3000031,-75.69617325,45.38435121,-26.2617,52.9107,128.0568,240.486954,158.608688,-170.295654,981.2725,8.863801,0.447562
21/11/2018,03:10.0,115,-75.69611985,45.38441606,-11.376,-61.4789,128.3581,-277.773926,-258.643463,64.13913,981.2725,9.064433,0.200632
21/11/2018,03:11.0,114.8000031,-75.69605118,45.38449235,-36.9271,-149.0277,124.1939,-320.347839,106.017395,-104.347824,981.2725,9.146744,0.08231
21/11/2018,03:12.0,114.5,-75.69599778,45.38456483,-82.5754,5.4759,121.6592,-275.339142,-20.52174,-37.843479,981.2987,9.064433,-0.08231
21/11/2018,03:13.0,114.3000031,-75.69592911,45.38462205,-14.1311,21.032,124.8093,93.773911,114.573914,-21.913044,981.3904,7.603423,-1.46101
21/11/2018,03:14.0,114,-75.69584519,45.38465257,-18.5838,165.369,126.5066,194.782608,-272.765228,-40.486958,981.3904,6.965518,-0.637905
21/11/2018,03:15.0,113.699997,-75.69576127,45.38467164,-19.19,28.6327,124.5893,-300.243469,-27.269566,-181.773911,981.3773,7.104417,0.138899
21/11/2018,03:16.0,113.3999939,-75.69566971,45.3846602,9.6448,3.4225,125.6536,246.678268,-425.113037,-85.704346,981.3773,7.443947,0.33953
21/11/2018,03:17.0,113.199997,-75.69557053,45.38464494,9.6686,-48.8354,125.4135,379.547821,147.339127,61.495651,981.4059,8.117863,0.673916
21/11/2018,03:18.0,112.8999939,-75.69547135,45.38461442,19.8886,10.6724,125.0459,294.052185,-83.686958,-79.582611,981.4059,8.53456,0.416697
21/11/2018,03:19.0,112.6000061,-75.69536454,45.38458009,17.3205,-24.5482,126.945,18.434782,-370.226074,9.808696,981.4047,8.858656,0.324097
21/11/2018,03:20.0,112.3000031,-75.69527299,45.38454957,-22.3595,47.0739,127.0747,137.252167,-382.260864,-16.278261,981.4047,9.136455,0.277798
21/11/2018,03:21.0,112.1000061,-75.69516617,45.38450761,-19.8893,56.7794,127.714,110.747826,443.200012,138.573914,981.4023,9.275354,0.138899
21/11/2018,03:22.0,111.8000031,-75.69505936,45.38446565,5.5983,33.2245,127.8266,209.600006,-337.113037,-112.069565,981.3348,9.301075,0.025722
21/11/2018,03:23.0,111.5,-75.69494492,45.3844275,2.3283,-6.6654,127.6975,100.313042,-177.113037,-66.852173,982.92,9.316509,0.015434
21/11/2018,03:24.0,111.199997,-75.69483811,45.38439317,-14.3336,147.743,128.6163,128.486954,280.278259,-120.486954,982.25,9.285642,-0.030867
21/11/2018,03:25.0,111,-75.6947313,45.38435121,31.0713,27.1611,128.3131,-187.199997,110.95652,192.13913,981.3704,9.25992,-0.025722
21/11/2018,03:26.0,110.699997,-75.69462449,45.38431306,5.5009,-106.1588,128.3554,229.147827,175.652176,139.895645,981.3704,9.254775,-0.005145
21/11/2018,03:27.0,110.5,-75.69452531,45.3842711,-77.1074,167.3501,129.0257,120.208694,28.173914,23.234783,981.3976,9.244486,-0.010289
21/11/2018,03:28.0,110.3000031,-75.69441849,45.38424058,-1.8211,45.027,126.6631,132.730438,-300.03479,-36.104347,981.3976,9.223909,-0.020577
21/11/2018,03:29.0,110.1000061,-75.69431168,45.38419862,-25.932,58.4654,125.308,32.695652,127.373917,85.495651,982.156,8.910101,-0.313809
21/11/2018,03:30.0,110,-75.6942125,45.38415666,24.0688,-27.3106,124.5471,-208.556519,-551.373901,27.33913,982.145,8.786635,-0.123465
21/11/2018,03:31.0,109.8000031,-75.69411332,45.38411851,7.5278,55.904,124.5659,-37.356522,-497.669556,-113.947823,982.145,8.760914,-0.025722
21/11/2018,03:32.0,109.699997,-75.69401414,45.38408418,0.9112,47.7462,124.2065,32.626087,-231.095657,82.226089,982.159,8.750625,-0.010289
21/11/2018,03:33.0,109.6000061,-75.69391495,45.38404222,2.3129,-49.7989,123.355,111.373917,20.313044,-169.252167,982.17,8.74548,-0.005145
21/11/2018,03:34.0,109.5,-75.69381577,45.3840117,11.3437,-11.4805,123.4826,-389.008698,-286.330444,-240.556519,982.311,8.740335,-0.005145
21/11/2018,03:35.0,109.3999939,-75.69370896,45.38396974,-9.5879,65.1239,122.7296,69.426086,-567.86084,-99.130432,982.396,8.750625,0.010289
21/11/2018,03:36.0,109.3000031,-75.69360978,45.38393922,17.6546,-42.3613,122.9844,156.382614,169.113037,121.808693,982.614,8.766058,0.015434
21/11/2018,03:37.0,109.199997,-75.69350297,45.38390489,-11.0298,44.0051,123.6118,50.086956,448.626099,71.652176,982.195,8.766058,0
21/11/2018,03:38.0,109.1000061,-75.69340378,45.38387437,-13.8645,67.2906,123.4602,-33.878262,450.643463,125.078262,982.624,8.910101,0.144043
21/11/2018,03:39.0,109,-75.69328934,45.38383241,3.4084,-101.4759,123.6901,93.704346,466.921753,-137.182602,982.624,9.064433,0.154333
21/11/2018,03:40.0,108.8999939,-75.69319779,45.38379808,-9.0364,69.2389,123.7423,-8.278261,-584.834778,-91.060867,982.1161,9.064433,0
21/11/2018,03:41.0,108.8000031,-75.69308335,45.38376756,-28.5069,-44.7163,124.3397,126.886955,-297.878265,48.13913,982.398,9.064433,0
21/11/2018,03:42.0,108.699997,-75.69297654,45.38373323,5.0561,44.8331,124.8179,81.18261,-150.121735,31.095652,982.86,9.079866,0.015433
21/11/2018,03:43.0,108.6000061,-75.69286973,45.38370271,14.6516,-44.0197,125.5268,46.191303,-93.286957,-65.18261,982.86,9.162176,0.08231
21/11/2018,03:44.0,108.3999939,-75.69276292,45.38366838,3.4842,-44.8942,125.7114,-146.08696,238.05217,49.18261,982.86,9.187899,0.025723
21/11/2018,03:45.0,108.3999939,-75.69264847,45.38363786,-81.0716,-172.3339,125.9199,-11.478261,322.156525,11.478261,982.62,9.203331,0.015433
21/11/2018,03:46.0,108.3999939,-75.69254166,45.38360353,-2.1631,68.7214,126.7217,-5.913043,-132.869568,-18.226088,982.182,9.218765,0.015434
21/11/2018,03:47.0,108.3999939,-75.69242722,45.38357301,0.3103,-67.2747,127.3881,49.252174,-262.260864,-109.008698,982.68,9.249631,0.030866
21/11/2018,03:48.0,108.3000031,-75.69231278,45.38353868,-8.5691,44.4187,127.0175,0,-186.226089,-39.165218,982.909,9.352519,0.102888
21/11/2018,03:49.0,108.3000031,-75.6922136,45.38349672,-31.3526,144.5966,126.6681,-110.260872,20.591305,-120.834785,982.909,9.326797,-0.025723
21/11/2018,03:50.0,108.3000031,-75.69209916,45.3834662,-20.9195,-140.5973,124.2937,-19.408695,63.582607,62.469566,982.485,9.115876,-0.21092
21/11/2018,03:51.0,108.3000031,-75.69199235,45.38343187,0.3578,-31.853,122.451,-23.026087,-198.608688,17.321739,982.485,9.0027,-0.113176
21/11/2018,03:52.0,108.3999939,-75.69189316,45.38339372,-17.0128,124.233,123.0654,106.365219,-82.434784,-17.808695,982.485,8.894668,-0.108032
21/11/2018,03:53.0,108.5,-75.69178635,45.38335939,-7.1701,44.6088,123.0239,266.573914,352.695648,150.330429,982.32,8.889524,-0.005145
21/11/2018,03:54.0,108.6000061,-75.69167954,45.38331743,-5.6034,38.0743,121.7883,103.791306,-36.730434,-42.017391,982.32,8.889524,0
21/11/2018,03:55.0,108.699997,-75.69158036,45.38327928,-4.5055,44.8789,121.7236,222.191299,492.10434,111.930435,982.316,8.87409,-0.015434
21/11/2018,03:56.0,108.8999939,-75.69147355,45.38323732,-23.5059,114.8258,121.8065,472.06958,126.330437,65.669563,982.316,8.889524,0.015434
21/11/2018,03:57.0,109,-75.69137437,45.3832068,-10.2681,-32.1085,122.9185,-114.08696,-201.669571,-15.373913,982.153,8.915245,0.025722
21/11/2018,03:58.0,109.199997,-75.69126755,45.38316484,25.0506,-63.8687,122.4302,222.817398,298.643463,103.582611,982.153,8.997555,0.08231
21/11/2018,03:59.0,109.3999939,-75.69116074,45.38313051,-40.1669,-48.6185,123.4896,-487.93042,-467.547821,109.217392,982.102,9.007845,0.010289
21/11/2018,04:00.0,109.5,-75.69105393,45.38309236,-16.1884,42.8228,123.2868,130.504349,49.599998,231.513046,982.102,9.018134,0.010289
21/11/2018,04:01.0,109.6000061,-75.69093949,45.38305803,27.9927,135.0939,122.0337,154.226089,296.904358,136.765213,982.65,9.028422,0.010288
21/11/2018,04:02.0,109.6000061,-75.69083268,45.38302751,7.0467,-49.8624,124.3007,-247.930435,-486.747833,-207.026093,982.65,9.018134,-0.010288
21/11/2018,04:03.0,109.6000061,-75.69072587,45.38299318,-3.7045,-53.6364,124.2458,-317.217377,-192.973907,-204.869568,982.569,9.007845,-0.010289
21/11/2018,04:04.0,109.6000061,-75.69062668,45.38296266,-22.1909,-62.311,124.5471,96,-156.104355,-45.286957,982.569,9.012989,0.005145
21/11/2018,04:05.0,109.5,-75.69051987,45.38292833,-8.2815,18.6921,123.7155,405.078247,-294.330444,162.782608,982.569,9.007845,-0.005145
21/11/2018,04:06.0,109.5,-75.69041306,45.38289781,38.387,-5.5793,124.1169,191.026093,182.886963,-53.70435,982.569,9.007845,0
21/11/2018,04:07.0,109.5,-75.69030625,45.38286348,-11.4642,65.3126,124.1918,-168.486954,456,114.156525,982.569,9.090155,0.08231
21/11/2018,04:08.0,109.6000061,-75.69019944,45.38282914,39.7479,-169.9571,123.4885,-234.921738,199.791306,50.643478,982.569,9.095299,0.005145
21/11/2018,04:09.0,109.6000061,-75.69009263,45.38279863,24.7141,30.3483,125.0817,55.513042,-348.591309,-65.321739,982.569,9.100444,0.005145
21/11/2018,04:10.0,109.6000061,-75.68998582,45.38275667,-43.1046,27.7343,123.6901,97.321739,-72,-244.730438,982.88,9.115876,0.015433
21/11/2018,04:11.0,109.6000061,-75.68987137,45.38272615,16.2888,-164.3304,124.5923,-140.521744,-274.643463,15.791305,982.1185,9.110732,-0.005145
21/11/2018,04:12.0,109.699997,-75.68977219,45.38269182,-32.862,56.2837,124.5544,-114.573914,11.130435,94.678261,982.1185,9.121021,0.010289
21/11/2018,04:13.0,109.699997,-75.68966538,45.3826613,18.4758,108.8827,124.6722,-14.330435,-243.82608,108.521736,982.1185,9.136455,0.015434
21/11/2018,04:14.0,109.8000031,-75.68955857,45.38262697,-2.5607,6.469,125.145,-187.478256,76.800003,-25.669565,982.601,9.146744,0.010289
21/11/2018,04:15.0,109.8000031,-75.68945176,45.38259645,-20.8394,-113.579,124.5178,141.634781,285.773926,66.365219,982.107,9.167321,0.020577
21/11/2018,04:16.0,109.8000031,-75.68933732,45.38256212,-4.9084,-44.7346,125.0146,-146.573914,31.234783,-161.460876,982.696,9.162176,-0.005145
21/11/2018,04:17.0,109.8999939,-75.68923813,45.3825316,-1.6331,76.6052,124.8639,-285.913055,-85.565216,-90.295654,982.1308,9.054144,-0.108032
21/11/2018,04:18.0,109.8999939,-75.68912369,45.38249727,12.0022,34.9342,124.8409,5.286956,-410.295654,-113.252174,982.108,9.054144,0
21/11/2018,04:19.0,110,-75.68901688,45.38246293,17.3134,40.1504,124.8049,-142.260864,-208.208694,-173.495651,982.1162,9.043855,-0.010289
21/11/2018,04:20.0,110,-75.6889177,45.38243242,7.6914,39.9414,124.8956,-127.165215,-31.234783,-44.452175,982.1192,9.038711,-0.005145
21/11/2018,04:21.0,110.1000061,-75.68881089,45.38239808,-6.1543,44.7261,124.7758,-161.808701,-329.739136,-162.573914,982.1308,9.054144,0.015434
21/11/2018,04:22.0,110.199997,-75.68870408,45.38236757,-1.1843,-43.5064,125.151,57.18261,142.260864,129.739136,982.1308,9.054144,0
21/11/2018,04:23.0,110.199997,-75.68859727,45.38233323,-3.596,-50.7475,124.7986,-7.721739,136.278259,142.121735,982.1523,9.043855,-0.010289
21/11/2018,04:24.0,110.3000031,-75.68849045,45.38230272,9.6884,67.8949,124.2731,50.991302,-530.573914,-182.399994,982.1559,9.043855,0
21/11/2018,04:25.0,110.3000031,-75.68838364,45.38226075,-12.1205,106.454,125.1563,228.452179,392.06958,106.504349,982.1313,9.054144,0.010289
21/11/2018,04:26.0,110.3999939,-75.68827683,45.38223024,3.8958,-48.0186,124.2937,242.156525,-96.347824,-116.660866,982.1476,9.054144,0
21/11/2018,04:27.0,110.3999939,-75.68817765,45.3821959,-6.7325,-40.1496,124.8049,34.156521,-333.078247,-24.069565,982.1476,9.069577,0.015433
21/11/2018,04:28.0,110.3000031,-75.68807084,45.38216539,-32.6382,29.9165,123.7408,-210.921738,179.408691,0.904348,982.1157,9.064433,-0.005144
21/11/2018,04:29.0,110.3000031,-75.68796403,45.38213105,-6.2804,-68.6982,124.7359,-159.930435,-355.200012,-50.156521,982.15,9.049,-0.015434
21/11/2018,04:30.0,110.199997,-75.68785721,45.38209672,19.2992,-109.3521,124.3078,5.495652,-102.330437,68.313042,982.15,9.038711,-0.010289
21/11/2018,04:31.0,110.3000031,-75.68774277,45.3820662,5.3311,-38.972,123.5635,-150.886963,-72.13913,-125.982605,982.1297,9.650895,0.612184
21/11/2018,04:32.0,110.3000031,-75.68763596,45.38203187,-27.7094,62.2555,124.6187,-270.817383,-335.373901,-212.730438,982.1297,8.910101,-0.740794
21/11/2018,04:33.0,110.3999939,-75.68752915,45.38200135,8.3446,-44.3966,124.176,62.678261,93.008698,-42.573914,982.1511,8.894668,-0.015433
21/11/2018,04:34.0,110.3999939,-75.68742234,45.38196702,-35.1776,154.9928,123.8453,-178.226089,-306.573914,78.95652,982.1254,8.987266,0.092598
21/11/2018,04:35.0,110.3999939,-75.68732316,45.38193651,-8.9754,76.9338,123.9214,93.704346,70.81739,-116.521736,982.1697,8.982122,-0.005145
21/11/2018,04:36.0,110.3999939,-75.68721635,45.38190217,19.4047,-109.4059,124.1488,-49.669567,-90.226089,-45.982609,982.171,9.0027,0.020578
21/11/2018,04:37.0,110.3999939,-75.68710953,45.38187166,12.0627,69.1114,124.5975,124.313042,172.939133,-120.417389,982.1376,9.018134,0.015434
21/11/2018,04:38.0,110.3999939,-75.68700272,45.38183732,17.9982,-40.1894,124.9847,-80.834785,256,205.982605,982.1625,9.162176,0.144043
21/11/2018,04:39.0,110.5,-75.68688828,45.38180681,12.968,-41.4464,124.3921,109.843475,226.991302,-29.426086,982.1056,9.198187,0.036011
21/11/2018,04:40.0,110.5,-75.68678147,45.38177247,1.9294,-63.6928,125.3718,215.652176,159.652176,53.982609,982.1438,9.198187,0
21/11/2018,04:41.0,110.6000061,-75.68667466,45.38174196,0.1805,39.632,124.2633,99.478264,407.304352,147.339127,982.1802,9.182754,-0.015433
21/11/2018,04:42.0,110.699997,-75.68656022,45.38170762,-38.7919,-170.1338,124.8664,35.61739,-344,-138.08696,982.2176,9.162176,-0.020578
21/11/2018,04:43.0,110.699997,-75.68645341,45.38168474,1.5853,-44.9781,124.3921,-106.504349,81.530434,-14.678261,982.1986,9.136455,-0.025722
21/11/2018,04:44.0,110.8999939,-75.68635422,45.3816504,-1.2857,-5.1495,124.5821,-201.460876,-262.469574,-9.947826,982.1986,9.115876,-0.020578
21/11/2018,04:45.0,111,-75.68624741,45.38162751,9.8426,45.8402,123.7399,137.808701,-215.165222,9.6,982.1795,9.090155,-0.025722
21/11/2018,04:46.0,111.199997,-75.6861406,45.38159318,22.0329,-8.4984,122.2206,-237.773911,297.947815,65.18261,982.1915,9.074721,-0.015434
21/11/2018,04:47.0,111.3000031,-75.68603379,45.38156266,-4.9182,-72.2472,122.8163,88.973915,84.591301,72.347824,982.2188,9.043855,-0.030866
21/11/2018,04:48.0,111.5,-75.68592698,45.38152833,-5.2761,-51.6916,123.2161,-110.469566,-152.208694,-104,982.2188,8.951256,-0.092599
21/11/2018,04:49.0,111.6000061,-75.68582017,45.38149781,-5.2132,44.819,121.9862,-1.947826,125.773911,37.843479,982.2009,8.961545,0.010289
21/11/2018,04:50.0,111.699997,-75.68572098,45.38147111,10.3205,-41.4778,122.7352,98.226089,-90.295654,23.930435,982.209,8.9564,-0.005145
21/11/2018,04:51.0,111.8000031,-75.6856218,45.38144059,-1.9216,64.6339,136.1488,52.869564,-223.304352,29.286957,982.1643,8.961545,0.005145
21/11/2018,04:52.0,112,-75.68552262,45.38141389,13.7038,-16.0809,137.051,72.695656,25.460869,-63.234783,982.1643,7.804055,-1.15749
21/11/2018,04:53.0,112.199997,-75.6854387,45.38139863,7.605,35.3248,137.4849,134.469559,256.904358,26.504349,982.1643,4.984923,-2.819131
21/11/2018,04:54.0,112.3999939,-75.68540055,45.381391,-37.9961,9.5868,138.5797,75.060867,265.600006,183.026093,982.2329,2.721388,-2.263536
21/11/2018,04:55.0,112.6000061,-75.68537766,45.381391,13.3664,-27.5392,128.4373,-172.939133,-200.973907,152.765213,982.223,1.15749,-1.563898
21/11/2018,04:56.0,112.699997,-75.68537003,45.38139863,12.7404,44.0819,113.4481,530.226074,271.86087,381.913055,982.1296,0.020578,-1.136912
21/11/2018,04:57.0,112.8999939,-75.68537003,45.38139863,21.4432,-13.169,98.8749,-156.939133,157.286957,407.373901,982.1459,0.010289,-0.010289
21/11/2018,04:58.0,113.1000061,-75.68537003,45.38139863,-26.7955,-57.7004,79.5698,72.556519,-347.96521,216.13913,982.1054,0.015433,0.005144
21/11/2018,04:59.0,113.199997,-75.68537003,45.381391,16.9443,11.2035,60.1151,-122.643478,64.695656,184.347824,982.1054,0.020578,0.005144
21/11/2018,05:00.0,113.199997,-75.68537003,45.381391,-3.3964,-69.2613,55.0806,76.313042,-296.278259,-81.808693,982.1102,0.025722,0.005144
21/11/2018,05:01.0,113.1000061,-75.68537766,45.381391,-14.5697,49.2558,62.5448,3.269565,366.469574,-72.765221,982.897,2.134926,2.109204
21/11/2018,05:02.0,113,-75.68540055,45.38140626,-14.2176,52.7392,63.5966,139.617386,146.991302,-102.260872,982.908,3.174095,1.039169
21/11/2018,05:03.0,113,-75.68543107,45.38143297,11.0582,-54.4721,63.354,429.773926,-311.165222,-162.852173,982.679,3.863445,0.68935
21/11/2018,05:04.0,113,-75.68546921,45.38145585,57.7198,-32.1789,61.0178,158.817398,-370.365204,104.626083,982.944,4.16182,0.298375
21/11/2018,05:05.0,112.8999939,-75.68550736,45.38147874,-16.9162,42.6231,62.598,-212.800003,-272.347839,-166.05217,982.67,4.393318,0.231498
21/11/2018,05:06.0,112.8000031,-75.68554551,45.38151307,-6.9361,44.6374,62.7447,-190.747833,113.460869,-149.147827,982.67,4.578516,0.185198
21/11/2018,05:07.0,112.699997,-75.68558365,45.38154359,-13.338,-136.097,62.6761,-157.286957,198.886963,74.226089,982.67,4.779148,0.200632
21/11/2018,05:08.0,112.699997,-75.68562943,45.38158555,4.1157,-44.8524,64.1648,57.113045,-458.156525,-78.052177,982.67,5.005501,0.226353
21/11/2018,05:09.0,112.6000061,-75.68566758,45.38161989,-3.6386,44.9404,63.1561,99.895653,190.817398,37.495651,982.67,5.1907,0.185199
21/11/2018,05:10.0,112.5,-75.6856981,45.38165803,-26.0825,118.0207,64.5889,-159.86087,-332.243469,-162.782608,982.67,5.200988,0.010289
21/11/2018,05:11.0,112.3999939,-75.68574387,45.38169999,-17.0534,-130.4743,64.3643,-82.295654,-123.617393,-87.09565,982.1177,5.211277,0.010289
21/11/2018,05:12.0,112.3000031,-75.68577439,45.38174196,-34.891,40.8237,63.5699,88.973915,-514.295654,-96.834785,982.1066,5.360465,0.149188
21/11/2018,05:13.0,112.3000031,-75.68580491,45.3817801,-21.7774,-133.184,63.7642,27.756521,-417.391296,-167.652176,982.1524,5.386187,0.025722
21/11/2018,05:14.0,112.3999939,-75.68583542,45.38182969,-6.4784,-102.2535,64.7908,309.217377,-471.026093,-106.365219,982.1524,5.473642,0.087455
21/11/2018,05:15.0,112.3999939,-75.68587357,45.38187166,-25.2394,39.8088,63.7005,-22.330435,32.486958,-114.434784,982.1493,5.581674,0.108032
21/11/2018,05:16.0,112.5,-75.68590409,45.38192125,9.0512,-78.6253,66.174,133.286957,511.026093,99.269562,982.1493,5.669129,0.087455
21/11/2018,05:17.0,112.5,-75.68590409,45.38192125,-9.0476,66.1971,280.0263,-97.808693,164.03479,14.052174,982.1352,5.669129,0
21/11/2018,05:18.0,112.3999939,-75.68594987,45.38201661,-32.9605,140.9333,64.5024,-89.947823,241.043472,113.113045,982.1961,5.519941,-0.149188
21/11/2018,05:19.0,112.3999939,-75.68598038,45.38205858,-28.0937,-144.1458,65.0396,-422.121735,247.582611,78.400002,982.2126,5.514797,-0.005144
21/11/2018,05:20.0,112.3999939,-75.68598038,45.38205858,-5.9966,-83.4737,68.9935,-451.686951,289.460876,113.669563,982.2126,5.514797,0
21/11/2018,05:21.0,112.3999939,-75.68602616,45.38215394,-20.9374,35.3351,65.7508,285.147827,277.008698,19.826086,982.1797,5.535375,0.020578
21/11/2018,05:22.0,112.5,-75.68605668,45.38220353,1.742,45.0295,65.5175,-60.104347,400.834778,20.034782,982.2064,5.571385,0.036011
21/11/2018,05:23.0,112.5,-75.68608719,45.38225312,-8.7907,-135.9353,65.543,361.182617,-298.573914,-8.556521,982.1775,5.602252,0.030867
21/11/2018,05:24.0,112.6000061,-75.68612534,45.38230272,-1.762,-79.11,64.5708,128,-201.600006,-135.791306,982.1665,5.627973,0.025722
21/11/2018,05:25.0,112.6000061,-75.68615586,45.38234086,-11.0298,44.0051,64.876,145.113037,48,11.756522,982.2042,5.730862,0.102888
21/11/2018,05:26.0,112.6000061,-75.68619401,45.38239045,-16.553,42.7237,63.8609,-42.852173,91.269562,3.478261,982.2042,5.86976,0.138899
21/11/2018,05:27.0,112.8000031,-75.68623978,45.38243242,-0.5544,45.0533,64.9737,443.756531,-451.130432,6.608696,982.1657,5.96236,0.092599
21/11/2018,05:28.0,112.8000031,-75.6862703,45.38248201,-5.5273,44.7897,64.1602,154.991302,-254.191299,-101.356522,982.2153,6.065248,0.102888
21/11/2018,05:29.0,112.8000031,-75.68630845,45.3825316,-22.9271,-119.8126,64.8407,-446.330444,368.486969,213.008698,982.2103,6.101258,0.036011
21/11/2018,05:30.0,112.8000031,-75.68635422,45.38257737,2.4574,-60.7555,64.6388,-183.443481,509.008698,180.03479,982.1597,6.265879,0.164621
21/11/2018,05:31.0,112.8000031,-75.6864,45.38262697,10.4947,44.1036,64.2357,399.095642,188.313049,133.356522,982.1507,6.265879,0
21/11/2018,05:32.0,112.8999939,-75.68643815,45.38267656,4.1666,-66.0359,64.8075,-129.530441,114.156525,62.886955,982.1734,6.25559,-0.010289
21/11/2018,05:33.0,113,-75.68648392,45.38272615,-26.6782,-158.0282,65.8297,-151.86087,89.321739,120.069565,982.1602,6.245302,-0.010289
21/11/2018,05:34.0,113,-75.68652207,45.38277574,-11.4116,-133.766,63.7276,175.930435,218.573914,-86.052177,982.1705,6.121836,-0.123466
21/11/2018,05:35.0,113,-75.68656022,45.38282151,4.4346,7.7767,62.8613,122.573914,186.226089,-18.782608,982.1705,6.106403,-0.015433
21/11/2018,05:36.0,113,-75.68661362,45.38286348,-10.1215,-135.4467,63.7276,200.347824,-341.356537,-54.95652,982.1707,6.09097,-0.015433
21/11/2018,05:37.0,113.1000061,-75.68665177,45.38291307,3.196,45.5311,63.5859,-126.052177,142.399994,-94.886955,982.1707,6.101258,0.010289
21/11/2018,05:38.0,113.199997,-75.68669755,45.38296266,-5.0103,-128.4693,61.2117,-30.81739,-625.878235,-46.678261,982.1707,5.946927,-0.154332
21/11/2018,05:39.0,113.3999939,-75.68674332,45.38300081,13.2376,-43.4971,61.3196,72.347824,-338.086945,-297.043488,982.1684,5.926349,-0.020578
21/11/2018,05:40.0,113.3999939,-75.6867891,45.38304277,15.8958,42.9009,62.2013,-71.930435,-171.686951,-178.504349,982.2004,5.91606,-0.010289
21/11/2018,05:41.0,113.3999939,-75.6868425,45.38308473,8.033,40.8126,61.4735,304,489.878265,173.704346,982.1873,6.013803,0.097743
21/11/2018,05:42.0,113.5,-75.68689591,45.38313051,-15.6346,52.0442,60.8431,-131.130432,155.130432,273.182617,982.1616,6.152702,0.138899
21/11/2018,05:43.0,113.6000061,-75.68694169,45.38317247,-25.2383,-136.015,61.8327,116.382607,562.365234,-56.695652,982.195,6.368767,0.216065
21/11/2018,05:44.0,113.699997,-75.68700272,45.38321443,-14.2312,-125.3407,60.1667,-52.591305,4.452174,-168,982.195,6.698009,0.329242
21/11/2018,05:45.0,113.8000031,-75.68705613,45.38326402,-4.2834,31.6335,59.9885,17.6,351.86087,108.243477,982.195,7.083839,0.38583
21/11/2018,05:46.0,113.8999939,-75.68712479,45.3833098,-9.1036,-132.1196,60.8759,-300.382599,426.086945,-85.078262,982.195,7.428513,0.344674
21/11/2018,05:47.0,114,-75.6871782,45.38335939,7.0726,64.2353,62.0108,250.017395,-626.156494,-161.530441,982.195,7.58799,0.159477
21/11/2018,05:48.0,114,-75.68724686,45.38341661,0,8.0406,61.8656,-145.043472,-575.582581,-52.730434,982.1822,7.577701,-0.010289
21/11/2018,05:49.0,114.1000061,-75.68730027,45.38347383,-17.5111,44.1937,63.0555,-179.060867,-245.91304,-172.800003,982.1822,7.433658,-0.144043
21/11/2018,05:50.0,114.1000061,-75.68736893,45.38352342,-5.4175,-134.8074,61.0132,224.278259,217.530441,-18.365217,982.1822,7.428513,-0.005145
21/11/2018,05:51.0,114.1000061,-75.68742234,45.38358064,-28.0969,43.657,63.207,403.200012,-333.147827,4.8,982.1822,7.418225,-0.010289
21/11/2018,05:52.0,114.1000061,-75.68748337,45.38363023,-60.4233,-174.2838,63.435,181.286957,28.382608,-15.095653,982.2369,7.325625,-0.092599
21/11/2018,05:53.0,114,-75.68752915,45.38368364,-36.3876,134.1674,63.8274,70.121742,202.782608,117.982605,982.2683,7.289615,-0.036011
21/11/2018,05:54.0,113.8999939,-75.68759019,45.38374086,-5.2229,40.9071,62.8311,48.13913,259.130432,55.930435,982.2074,7.258748,-0.030867
21/11/2018,05:55.0,113.8999939,-75.68763596,45.38379045,-45.1758,135.523,62.5315,-139.82608,542.539124,112.973915,982.1848,7.114705,-0.144043
21/11/2018,05:56.0,114,-75.687697,45.38384767,-15.3594,-114.7166,63.5122,222.469559,-443.686951,-78.469566,982.2143,6.960373,-0.154332
21/11/2018,05:57.0,114,-75.68774277,45.38389726,-32.4229,127.9229,63.2824,116.939133,14.678261,-98.782608,982.2143,6.703153,-0.25722
21/11/2018,05:58.0,114,-75.68778855,45.38394685,-21.7071,115.6097,64.0453,-369.043488,664.765198,152.695648,982.2143,6.538532,-0.164621
21/11/2018,05:59.0,114,-75.68784196,45.38399644,-13.8241,43.4164,63.8861,96.417389,86.608696,48.13913,982.2143,6.343045,-0.195487
21/11/2018,06:00.0,114,-75.68788773,45.38403459,6.5125,-13.4449,63.2039,-41.04348,-329.739136,-301.704346,982.2691,6.343045,0
21/11/2018,06:01.0,114.1000061,-75.68794114,45.38408418,-23.3852,-113.4014,62.5195,148.660873,185.530441,183.443481,982.2691,6.358478,0.015433
21/11/2018,06:02.0,114.1000061,-75.68798691,45.38413377,-16.0422,42.862,62.7447,176.973907,385.113037,89.808693,982.2466,6.34819,-0.010289
21/11/2018,06:03.0,114,-75.68802506,45.38417192,-5.1365,-16.8042,63.435,-137.669571,375.79129,177.600006,982.2229,6.250446,-0.097744
21/11/2018,06:04.0,114,-75.68807847,45.38422151,-19.84,41.7426,63.7373,179.547821,414.956512,136,982.2229,6.096114,-0.154332
21/11/2018,06:05.0,114,-75.68812424,45.3842711,-3.7211,-44.8793,62.9045,115.686958,588.382629,-64.278259,982.2931,5.905771,-0.190343
21/11/2018,06:06.0,114,-75.68816239,45.38431306,9.3587,-132.1039,63.2803,-236.939133,24.556522,-60.730434,982.2638,5.736006,-0.169765
21/11/2018,06:07.0,114,-75.68820817,45.38435121,21.9325,10.9442,62.6035,152.13913,-313.113037,-77.008698,982.2701,5.602252,-0.133754
21/11/2018,06:08.0,114,-75.68824631,45.3844008,-39.6967,-40.8195,63.2813,159.652176,-139.617386,36.730434,982.2797,5.473642,-0.12861
21/11/2018,06:09.0,114,-75.68827683,45.38444276,9.7698,-51.3693,63.9777,227.130432,-420.243469,-195.060867,982.2645,5.458208,-0.015434
21/11/2018,06:10.0,113.8999939,-75.68832261,45.38448472,-11.3379,75.4321,64.1197,-172.521744,354.573914,31.443478,982.2645,5.453064,-0.005144
21/11/2018,06:11.0,113.8999939,-75.68835312,45.38452287,-18.1166,63.4342,64.662,75.269562,-204.591309,-237.704346,982.2376,5.442775,-0.010289
21/11/2018,06:12.0,113.8999939,-75.68839127,45.3845572,7.2856,-50.4853,62.6659,-31.930435,421.286957,45.286957,982.3037,5.458208,0.015433
21/11/2018,06:13.0,114,-75.68843705,45.38459535,27.7531,-61.0248,63.3573,355.408691,59.33913,60.66087,982.3232,5.48393,0.025722
21/11/2018,06:14.0,114,-75.6884752,45.38464494,-54.445,21.4243,63.2749,248.904343,251.199997,76.869568,982.3232,5.602252,0.118321
21/11/2018,06:15.0,114,-75.68850571,45.3846869,-12.707,44.043,63.5954,157.773911,-141.008698,-41.947826,982.3232,5.627973,0.025722
21/11/2018,06:16.0,114.1000061,-75.68855149,45.38472886,16.6665,-106.6899,62.7158,203.408691,489.182617,174.05217,982.3232,5.730862,0.102888
21/11/2018,06:17.0,114.1000061,-75.68859727,45.38476701,-26.5661,137.4883,63.0315,194.434784,-5.773913,23.930435,982.3232,5.813172,0.08231
21/11/2018,06:18.0,114.199997,-75.68863541,45.38480897,9.0434,64.3472,62.7208,-104.695656,766.191284,-227.199997,982.2953,5.802883,-0.010289
21/11/2018,06:19.0,114.199997,-75.68868882,45.38485093,-12.0184,43.8111,62.3919,-49.391304,-556.799988,-163.339127,982.3354,5.828605,0.025722
21/11/2018,06:20.0,114.3000031,-75.68873459,45.38488908,-8.836,115.3134,62.3991,228.17392,-589.565247,-0.069565,982.3508,6.018948,0.190343
21/11/2018,06:21.0,114.3999939,-75.688788,45.38493104,-17.7733,8.8858,63.0228,127.443481,802.365234,53.70435,982.3508,6.229868,0.21092
21/11/2018,06:22.0,114.3000031,-75.68884141,45.384973,-44.8983,-135.1017,62.3991,12.939131,-148.452179,-33.18261,982.2898,6.343045,0.113177
21/11/2018,06:23.0,114.3999939,-75.68888718,45.38501878,-6.2326,44.7177,63.435,158.886963,700.173889,250.782608,982.3217,6.34819,0.005145
21/11/2018,06:24.0,114.3999939,-75.68894059,45.38506074,12.3377,-67.7159,64.5291,134.191299,-43.408695,-86.539131,982.3041,6.343045,-0.005145
21/11/2018,06:25.0,114.3999939,-75.68899399,45.38511033,-8.9559,44.3603,64.7801,-87.165215,429.147827,220.730438,982.3041,6.363623,0.020578
21/11/2018,06:26.0,114.3999939,-75.6890474,45.38514848,-20.0919,-14.5632,63.2749,51.61739,-183.513046,-58.086956,982.3024,6.373912,0.010289
21/11/2018,06:27.0,114.3999939,-75.68909318,45.38519807,-24.9476,-56.0895,63.3562,324.660858,137.252167,158.678268,982.3024,6.337901,-0.036011
21/11/2018,06:28.0,114.5,-75.68915421,45.38524003,-22.9293,40.6829,63.0343,237.008698,-563.686951,-67.826088,982.2785,6.337901,0
21/11/2018,06:29.0,114.5,-75.68919999,45.38528962,-9.6501,44.2493,62.9494,189.147827,631.93042,181.356522,982.3331,6.111547,-0.226353
21/11/2018,06:30.0,114.5,-75.68924576,45.38532777,18.2394,-57.3281,62.0653,207.443481,-480.486969,-81.18261,982.3331,5.885193,-0.226354
21/11/2018,06:31.0,114.5,-75.68929917,45.38536973,-22.8749,54.3257,63.2738,-122.295654,-377.600006,-230.191299,982.3509,5.797739,-0.087454
21/11/2018,06:32.0,114.3999939,-75.68933732,45.38541169,-22.322,40.9013,62.0936,-37.286957,-299.756531,-146.434784,982.2755,5.78745,-0.010289
21/11/2018,06:33.0,114.3999939,-75.68938309,45.38544984,14.8818,-120.2984,63.6801,202.852173,491.756531,90.782608,982.3494,5.782305,-0.005145
21/11/2018,06:34.0,114.3999939,-75.6894365,45.3854918,0.5547,-98.368,64.7045,-58.086956,-355.408691,-115.965218,982.2721,5.772017,-0.010289
21/11/2018,06:35.0,114.3999939,-75.68947465,45.38553376,-13.4705,66.5554,63.8356,-26.156521,-761.321716,-189.565216,982.2721,5.766872,-0.005145
21/11/2018,06:36.0,114.3999939,-75.68952805,45.38557191,-14.6473,24.6384,64.7989,168.347824,55.304348,118.330437,982.2899,5.756583,-0.010289
21/11/2018,06:37.0,114.3000031,-75.68957383,45.38561387,-5.3629,-95.7288,65.0599,-343.234772,20.452173,-49.460869,982.2899,5.540519,-0.216064
21/11/2018,06:38.0,114.199997,-75.68960435,45.38565583,-14.3457,43.2928,65.3964,372.10434,363.200012,112.347824,982.2899,5.350176,-0.190343
21/11/2018,06:39.0,114.199997,-75.68965012,45.38569398,-2.9424,-46.7708,64.3911,131.199997,-225.808701,9.878261,982.2899,5.242143,-0.108032
21/11/2018,06:40.0,114.199997,-75.68968064,45.38572831,14.7154,34.6975,63.7498,-352.973907,-224.347824,-82.991302,982.3345,4.96949,-0.272653
21/11/2018,06:41.0,114.199997,-75.68971116,45.38577028,-30.5978,-124.8636,64.8455,184.347824,133.91304,90.365219,982.3283,4.779148,-0.190343
21/11/2018,06:42.0,114.199997,-75.68973405,45.38580842,-20.1007,47.6739,65.5416,2.782609,251.895645,74.365219,982.3283,4.774003,-0.005145
21/11/2018,06:43.0,114.199997,-75.68977219,45.38584276,-15.969,42.8815,65.0561,-192.13913,410.573914,185.113037,982.3318,4.779148,0.005145
21/11/2018,06:44.0,114.199997,-75.68980271,45.3858809,-14.5686,43.2388,64.4538,-127.513046,-438.678253,-193.252167,982.3318,4.799725,0.020578
21/11/2018,06:45.0,114.199997,-75.68984086,45.38591523,10.3711,23.3731,65.101,-219.686951,294.747833,104.13913,982.3386,4.830592,0.030867
21/11/2018,06:46.0,114.199997,-75.68987137,45.3859572,20.0502,14.7515,66.1941,290.295654,547.200012,143.721741,982.3386,4.825447,-0.005145
21/11/2018,06:47.0,114.199997,-75.68990952,45.38598771,-17.7265,-42.3404,64.6284,104.695656,278.052185,265.739136,982.3386,4.727703,-0.097744
21/11/2018,06:48.0,114.199997,-75.68994004,45.38602968,-21.706,-165.059,65.6701,-197.008698,-373.843475,-27.895653,982.3443,4.696837,-0.030866
21/11/2018,06:49.0,114.3000031,-75.68997056,45.38606019,-18.3623,-137.4388,64.6786,59.756523,-79.443481,25.947826,982.3242,4.722559,0.025722
21/11/2018,06:50.0,114.3000031,-75.6900087,45.38610215,-11.8668,43.8419,64.7708,-341.495667,407.304352,70.81739,982.3242,4.938624,0.216065
21/11/2018,06:51.0,114.3999939,-75.69003922,45.38613649,-4.0854,-127.682,63.2738,134.539124,321.391296,90.643478,982.3945,5.051801,0.113176
21/11/2018,06:52.0,114.3999939,-75.69007737,45.38617463,-34.2211,161.755,65.2371,-5.286956,-262.886963,2.434783,982.3845,5.206133,0.154332
21/11/2018,06:53.0,114.5,-75.69013077,45.38620897,-2.0936,-163.9423,63.2749,-98.295654,362.504333,-53.356522,982.3521,5.411909,0.205776
21/11/2018,06:54.0,114.5,-75.69016892,45.38624711,-9.6377,-48.5811,101.3099,88.973915,-107.060867,-178.156525,982.3863,5.494219,0.08231
21/11/2018,06:55.0,114.5,-75.6902147,45.38628145,-26.9543,170.264,126.2538,-358.539124,-294.678253,145.182602,982.3863,5.365609,-0.12861
21/11/2018,06:56.0,114.6000061,-75.69025284,45.38631578,5.6592,-47.8201,88.8876,-102.81739,90.573914,-9.669565,982.3863,2.855142,-2.510467
21/11/2018,06:57.0,114.8000031,-75.69026047,45.38633104,-18.1639,108.1852,84.9204,-133.078262,315.339142,188.591309,982.3863,1.198645,-1.656497
21/11/2018,06:58.0,115,-75.69025284,45.38633867,-0.3478,-129.15,88.5524,-61.913044,-92.243477,-11.269566,983.1,0.056588,-1.142057
21/11/2018,06:59.0,115.1000061,-75.69025284,45.38633867,-8.5223,69.127,94.6063,-157.078262,257.460876,69.078262,983.64,0.036011,-0.020578
21/11/2018,07:00.0,115.199997,-75.69025284,45.38633104,-7.6023,-68.1281,111.6087,188.03479,139.82608,161.530441,983.406,0.041155,0.005144
21/11/2018,07:01.0,115.3999939,-75.69023759,45.38633104,19.0874,-11.1193,137.3244,149.773911,-194.434784,33.18261,983.356,0.041155,0
21/11/2018,07:02.0,115.5,-75.69023759,45.38632341,14.6552,-74.7532,150.3148,191.513046,-233.252167,154.226089,983.356,0.030866,-0.010289
21/11/2018,07:03.0,115.699997,-75.69023759,45.38632341,1.9794,45.0218,157.9512,26.573914,-399.79129,156.521744,983.356,0.030866,0
21/11/2018,07:04.0,115.8000031,-75.69025284,45.38632341,-17.3743,109.3068,156.9574,265.321747,96.13913,188.521744,983.356,0.020578,-0.010289
21/11/2018,07:05.0,115.699997,-75.69025284,45.38632341,-8.4596,65.1602,153.92,294.469574,-443.756531,229.982605,982.3774,0.010289,-0.010289
21/11/2018,07:06.0,115.699997,-75.69025284,45.38632341,-7.0523,33.4272,149.4326,50.086956,110.052177,236.800003,982.3774,0.010289,0
21/11/2018,07:07.0,115.699997,-75.69025284,45.38632341,32.8964,-55.5853,138.0066,-194.504349,-78.400002,170.573914,982.3774,0.020578,0.010289
21/11/2018,07:08.0,115.699997,-75.69025284,45.38632341,-14.0315,-171.3256,128.3574,485.843475,168.208694,253.426086,982.3774,0.036011,0.015433
21/11/2018,07:09.0,115.699997,-75.69023759,45.38631578,3.0009,-164.1487,118.7844,-62.608696,83.547829,257.947815,983.855,0.036011,0
21/11/2018,07:10.0,115.6000061,-75.69023759,45.38631578,-39.1051,47.3307,110.055,-83.895653,-286.817383,-138.573914,983.604,0.036011,0
21/11/2018,07:11.0,115.6000061,-75.69023759,45.38631578,-6.5434,-36.5609,99.1704,300.660858,103.86087,93.704346,983.533,0.036011,0
21/11/2018,07:12.0,115.5,-75.69023759,45.38631578,-75.4301,-178.973,90.9878,-241.391312,417.321747,279.582611,983.533,0.488718,0.452707
21/11/2018,07:13.0,115.3999939,-75.69022996,45.38632341,-5.2132,44.819,84.301,-52.313042,88.765221,266.504333,982.4045,0.509296,0.020578
21/11/2018,07:14.0,115.3000031,-75.69022996,45.38632341,-26.7606,-55.9208,80.1621,59.686958,80.347824,411.547821,982.3903,0.324097,-0.185198
21/11/2018,07:15.0,115.3000031,-75.69022996,45.38632341,6.3477,-73.2525,94.2679,-219.617386,-25.947826,168.486954,983.354,0.25722,-0.066877
21/11/2018,07:16.0,115.199997,-75.69023759,45.38632341,-25.2482,116.0097,129.1511,-88.765221,214.121735,196.17392,983.354,0.416696,0.159476
21/11/2018,07:17.0,115.1000061,-75.69023759,45.38633104,21.1662,5.7273,152.9873,186.782608,-456.347839,96.278259,983.354,0.792238,0.375541
21/11/2018,07:18.0,115,-75.69023759,45.38633104,-12.2227,-102.9309,153.3138,83.617393,234.573914,425.739136,983.955,1.409566,0.617328
21/11/2018,07:19.0,114.8000031,-75.6902681,45.38632341,24.4779,-40.0573,143.5984,-172.452179,105.947823,240.278259,983.579,1.821118,0.411552
21/11/2018,07:20.0,114.6000061,-75.69027573,45.3862967,-36.8003,154.4583,130.6553,239.721741,330.573914,488.486969,983.949,2.299547,0.478429
21/11/2018,07:21.0,114.6000061,-75.69029099,45.38628145,27.4721,-28.7047,117.9055,292.939117,1.113043,205.078262,983.1506,2.546478,0.246931
21/11/2018,07:22.0,114.6000061,-75.69029099,45.38625856,-32.3551,-157.9529,98.4147,157.704346,132.243484,145.530441,983.1506,2.350991,-0.195487
21/11/2018,07:23.0,114.6000061,-75.69027573,45.38623185,-4.1647,60.6313,84.6656,252.17392,8.626087,311.234772,983.1506,2.335558,-0.015433
21/11/2018,07:24.0,114.5,-75.69023759,45.38622422,12.1967,-68.5398,74.4163,-133.356522,258.921753,400.20871,983.1005,3.060918,0.72536
21/11/2018,07:25.0,114.3999939,-75.69019181,45.38623185,-21.6923,-22.8046,64.7771,-133.217392,-371.478271,173.147827,983.935,3.812,0.751082
21/11/2018,07:26.0,114.3999939,-75.69015366,45.38625856,-23.6755,-129.1908,62.4699,-70.191307,286.260864,262.956512,983.935,4.218408,0.406408
21/11/2018,07:27.0,114.3000031,-75.69011552,45.38628145,-14.0311,-35.2639,70.4454,7.582609,-6.817391,20.869566,983.891,4.238985,0.020578
21/11/2018,07:28.0,114.3000031,-75.69010026,45.38632341,-31.7654,-157.1997,107.5009,-178.434784,-274.226074,313.600006,983.1076,3.894311,-0.344675
21/11/2018,07:29.0,114.199997,-75.69010026,45.3863463,-1.3553,21.5627,135.927,-151.304352,-145.252167,255.582611,983.1076,2.546478,-1.347833
21/11/2018,07:30.0,114.199997,-75.69010789,45.38636155,22.2615,-31.6681,143.2478,414.121735,-188.104355,175.721741,983.598,1.178068,-1.36841
21/11/2018,07:31.0,114,-75.69013077,45.3863463,-13.9548,-136.187,137,-401.878265,-143.721741,134.330429,983.708,2.855142,1.677075
21/11/2018,07:32.0,113.8999939,-75.69014603,45.38632341,-6.2342,-82.2654,141.8224,385.043488,-43.547825,-47.026089,983.708,4.228697,1.373555
21/11/2018,07:33.0,113.8000031,-75.69015366,45.38627382,7.4985,100.0428,141.8472,-370.782623,-43.826088,165.773911,983.111,5.170122,0.941425
21/11/2018,07:34.0,113.8999939,-75.69014603,45.38623948,21.2558,-55.4217,125.4555,49.669567,327.234772,160.834778,983.111,2.74711,-2.423012
21/11/2018,07:35.0,114.1000061,-75.6901384,45.3862166,11.7416,-39.1379,124.4643,56.626087,-93.078262,-29.634783,983.1272,2.880864,0.133754
21/11/2018,07:36.0,114.1000061,-75.69010789,45.38618226,17.5966,-39.3371,128.3844,249.391312,395.269562,115.895653,983.1272,4.696837,1.815973
21/11/2018,07:37.0,114.1000061,-75.69006211,45.38614412,8.701,-40.0384,143.3864,263.582611,-79.443481,89.599998,983.113,6.332757,1.635919
21/11/2018,07:38.0,114.1000061,-75.69001633,45.38610215,-19.2414,-22.2242,145.4232,31.791304,-294.608704,-118.400002,983.113,5.746295,-0.586462
21/11/2018,07:39.0,114.199997,-75.68997056,45.38607927,-25.9263,-3.5234,139.9775,-265.600006,1.113043,-146.017395,983.113,3.184384,-2.561911
21/11/2018,07:40.0,114.199997,-75.68994767,45.38606019,-13.459,5.9739,137.3448,-26.086956,-76.313042,-97.113045,983.113,1.594764,-1.58962
21/11/2018,07:41.0,114.199997,-75.68994004,45.38605256,24.241,-34.7943,137.7672,-318.121735,31.721739,85.217392,983.2038,1.579331,-0.015433
21/11/2018,07:42.0,114.199997,-75.68992478,45.38604493,8.676,-1.4406,137.872,356.382599,83.826088,69.565216,983.2038,1.795396,0.216065
21/11/2018,07:43.0,114.199997,-75.68990189,45.3860373,1.9884,-48.2452,138.4427,143.443481,-47.791306,-38.260868,983.1569,1.985738,0.190343
21/11/2018,07:44.0,114.199997,-75.68988663,45.38602205,63.9144,-17.853,135.1454,77.634781,265.460876,-142.956528,983.1261,2.309835,0.324097
21/11/2018,07:45.0,114.199997,-75.68985612,45.38600297,-4.0639,-79.7328,133.2389,424.695648,256.486969,-322.017395,983.909,2.633933,0.324097
21/11/2018,07:46.0,114.199997,-75.68983323,45.38598008,-16.7026,42.9417,137.7018,-353.460876,101.634781,-301.634796,983.82,3.863445,1.229512
21/11/2018,07:47.0,114.199997,-75.68980271,45.38594957,-14.5517,44.977,117.6589,62.747826,371.478271,-210.782608,983.56,5.026079,1.162634
21/11/2018,07:48.0,114.199997,-75.68978745,45.3859076,-1.9794,45.0218,83.3226,70.539131,-232.069565,-243.269562,983.26,5.370753,0.344674
21/11/2018,07:49.0,114.3000031,-75.68977982,45.38585801,-20.7037,138.0922,67.9128,38.539131,-297.600006,-336.278259,983.26,5.149545,-0.221209
21/11/2018,07:50.0,114.199997,-75.68978745,45.38580842,16.2639,47.0198,68.4399,-120.347824,-268.243469,-180.313049,983.229,4.45505,-0.694494
21/11/2018,07:51.0,114.199997,-75.68981034,45.38577791,15.3615,-42.7521,68.1986,344.486969,116.243477,60.38261,982.3985,3.565069,-0.889981
21/11/2018,07:52.0,114.199997,-75.68984086,45.38575883,-1.839,134.408,69.1511,172.03479,37.70435,108.521736,983.241,2.947741,-0.617328
21/11/2018,07:53.0,114.1000061,-75.68987137,45.3857512,-9.9716,149.4884,65.901,-30.052174,-117.495651,-79.234779,983.24,2.947741,0
21/11/2018,07:54.0,114,-75.68991715,45.38575883,-8.8908,-60.2116,64.0645,-80.278259,154.573914,91.756523,983.738,3.364438,0.416696
21/11/2018,07:55.0,113.8000031,-75.6899553,45.38578553,16.6991,-114.2156,63.693,-29.773912,-164.939133,-19.686956,983.738,4.053787,0.68935
21/11/2018,07:56.0,113.8000031,-75.68998582,45.38580842,-11.6045,12.8552,63.3071,270.678253,112.765221,-49.530434,983.833,4.861458,0.807671
21/11/2018,07:57.0,113.8000031,-75.69003159,45.38585038,-14.6772,-127.7773,64.5607,48.486958,-5.008696,-57.321739,983.425,5.478786,0.617328
21/11/2018,07:58.0,113.699997,-75.69006211,45.38589998,2.8384,46.4183,65.3972,113.460869,291.060883,86.678261,983.1126,6.152702,0.673917
21/11/2018,07:59.0,113.6000061,-75.69010026,45.3859572,-15.5288,42.997,65.995,161.530441,505.669556,175.791306,983.97,6.523099,0.370397
21/11/2018,08:00.0,113.5,-75.6901384,45.38600297,4.4255,52.1992,64.754,37.147827,526.260864,1.252174,983.97,6.543677,0.020578
21/11/2018,08:01.0,113.3999939,-75.69016129,45.38606019,-34.0255,44.6033,65.3099,-61.286957,310.956512,226.434784,983.1143,6.337901,-0.205776
21/11/2018,08:02.0,113.3000031,-75.69019181,45.38611741,-11.8021,-43.8012,66.7493,150.747833,-300.03479,-126.678261,983.825,6.312179,-0.025722
21/11/2018,08:03.0,113.3000031,-75.69022233,45.38617463,-31.6712,-43.1397,66.1869,-217.94783,-229.773911,31.373913,983.825,6.327612,0.015433
21/11/2018,08:04.0,113.3000031,-75.69026047,45.38622422,-12.3357,37.5565,68.7632,366.817383,274.295654,109.008698,983.841,6.497377,0.169765
21/11/2018,08:05.0,113.3999939,-75.69029862,45.38628145,-3.244,44.9641,65.7963,191.86087,-677.495667,-66.573914,983.841,6.682575,0.185198
21/11/2018,08:06.0,113.3999939,-75.69033677,45.38633867,-9.5252,-110.0205,67.0533,-298.295654,272.556519,-124.660866,983.1362,6.790608,0.108032
21/11/2018,08:07.0,113.3999939,-75.69039017,45.38638826,11.1663,10.9424,66.5793,33.04348,-214.886963,-27.965218,983.1458,6.806041,0.015433
21/11/2018,08:08.0,113.3999939,-75.69043595,45.38643785,-4.8988,44.8467,68.3422,45.913044,414.260864,171.895645,983.78,7.016962,0.210921
21/11/2018,08:09.0,113.3999939,-75.69049698,45.38648362,-13.1782,-121.7502,67.245,-98.295654,267.408691,-43.895653,983.78,7.15586,0.138899
21/11/2018,08:10.0,113.3999939,-75.69055802,45.38653322,9.2648,44.3119,66.4183,-16.486956,584.13916,169.252167,983.667,6.914073,-0.241787
21/11/2018,08:11.0,113.3000031,-75.6906038,45.38658281,-2.6937,-44.9367,65.914,182.05217,154.504349,-28.243479,983.1242,6.204147,-0.709927
21/11/2018,08:12.0,113.199997,-75.6906572,45.38662477,-6.9131,29.0023,65.9111,-58.226086,115.339134,66.713043,983.1735,5.813172,-0.390975
21/11/2018,08:13.0,113.1000061,-75.69070298,45.38666292,-19.7583,34.4601,68.2491,144.904343,224.278259,124.800003,983.1735,5.586818,-0.226354
21/11/2018,08:14.0,113,-75.69075638,45.38669725,16.9671,-8.9253,66.4738,-28.034782,-506.156525,-164.313049,983.1673,5.339887,-0.246931
21/11/2018,08:15.0,113,-75.69079453,45.38673539,-32.5798,38.2831,64.9748,92.173912,12.521739,100.382607,983.1673,5.211277,-0.12861
21/11/2018,08:16.0,113,-75.69084031,45.38676973,22.5484,-124.7811,66.5339,-324.591309,297.460876,223.86087,983.1573,5.200988,-0.010289
21/11/2018,08:17.0,113,-75.69088608,45.38681169,-12.2152,137.862,67.3491,-201.669571,-302.608704,-54.469566,983.1573,5.303877,0.102888
21/11/2018,08:18.0,112.8999939,-75.69092423,45.38684221,-12.7847,57.0617,66.9998,83.965218,-205.078262,-47.721741,983.1573,5.417053,0.113176
21/11/2018,08:19.0,112.8999939,-75.69097001,45.38688417,-24.4838,-115.6868,67.1324,-197.565216,-235.408691,31.026087,983.1613,5.555952,0.138899
21/11/2018,08:20.0,112.8000031,-75.69101578,45.38692613,9.4827,-78.2158,68.3477,92.313042,-91.826088,-54.747826,983.1613,5.679418,0.123465
21/11/2018,08:21.0,112.8000031,-75.69105393,45.38696428,6.7518,7.3082,69.3328,303.582611,512.834778,32.834782,983.1899,5.802883,0.123465
21/11/2018,08:22.0,112.8000031,-75.69110734,45.38700624,-21.2539,49.7995,68.2479,-34.782608,169.94783,147.96521,983.1753,5.838894,0.036011
21/11/2018,08:23.0,112.8999939,-75.69115311,45.3870482,6.1076,-131.8604,68.7005,170.365219,136.626083,119.721741,983.2082,5.844038,0.005144
21/11/2018,08:24.0,112.8999939,-75.69119889,45.38708635,-13.1281,45.1607,65.9271,180.869568,-499.96521,-93.773911,983.2082,5.864616,0.020578
21/11/2018,08:25.0,112.8999939,-75.69125229,45.38712831,-24.4571,138.5643,67.5823,-242.713043,-501.843475,-42.226086,983.2112,6.09097,0.226354
21/11/2018,08:26.0,112.8999939,-75.6913057,45.38717027,-14.6427,43.2206,67.4447,-147.478256,276.730438,29.565218,983.1935,6.322468,0.231498
21/11/2018,08:27.0,112.8999939,-75.69136674,45.38720842,14.3024,-47.8266,68.4721,-117.286957,-389.565216,-71.09565,983.1987,6.466511,0.144043
21/11/2018,08:28.0,113,-75.69142014,45.38725038,-4.4656,-112.2889,66.0375,-9.878261,440.06958,105.878258,983.1793,6.790608,0.324097
21/11/2018,08:29.0,113.1000061,-75.69148881,45.38729234,-1.7897,92.001,67.5902,-65.252174,-328.695648,-15.582608,983.1848,7.006673,0.216065
21/11/2018,08:30.0,113.199997,-75.69155747,45.38733049,16.5711,8.7348,67.7965,74.921738,562.295654,229.634781,983.1578,7.150716,0.144043
21/11/2018,08:31.0,113.199997,-75.69162614,45.38738008,-33.8568,-128.9108,67.6199,-79.86087,-606.400024,-147.339127,983.1495,7.047828,-0.102888
21/11/2018,08:32.0,113.199997,-75.6916948,45.38741441,1.0953,54.6492,66.2606,-279.652161,411.130432,246.886963,983.1286,7.15586,0.108032
21/11/2018,08:33.0,113.3000031,-75.69177109,45.38745256,-1.9362,-9.025,66.2292,-37.913044,484.03479,171.478256,983.1286,6.903785,-0.252075
21/11/2018,08:34.0,113.199997,-75.69184739,45.38749452,22.0534,-66.6377,65.9356,-277.634796,365.913055,57.808697,983.1637,6.703153,-0.200632
21/11/2018,08:35.0,113.199997,-75.69190079,45.38752504,-31.3922,27.0594,66.968,553.530457,-451.82608,-58.852173,983.1768,6.322468,-0.380685
21/11/2018,08:36.0,113.1000061,-75.69196946,45.387567,-9.5173,79.2172,67.3591,63.095654,91.408699,-70.678261,983.1768,6.286457,-0.036011
21/11/2018,08:37.0,113.199997,-75.69202286,45.38760896,-0.792,45.0505,67.0113,363.408691,-53.843479,-123.339134,983.1768,6.30189,0.015433
21/11/2018,08:38.0,113.199997,-75.69209153,45.38764711,-16.1378,72.7656,67.1462,-207.234787,-525.843506,-133.426086,983.2183,6.625987,0.324097
21/11/2018,08:39.0,113.3000031,-75.69215256,45.38768144,-29.7564,59.1474,67.8984,66.017395,451.408691,134.678268,983.2183,6.914073,0.288086
21/11/2018,08:40.0,113.3000031,-75.69222123,45.38773103,13.6399,-105.4143,70.8156,-318.539124,396.382599,-18.504349,983.2183,6.872918,-0.041155
21/11/2018,08:41.0,113.199997,-75.69228226,45.38776918,2.7639,-29.3791,73.8068,-70.052177,-491.339142,-102.400002,983.1461,6.399633,-0.473285
21/11/2018,08:42.0,113.1000061,-75.6923433,45.38780351,-14.048,43.3639,74.2836,319.582611,-241.808701,-102.469566,983.1461,5.83375,-0.565884
21/11/2018,08:43.0,113,-75.6923967,45.3878264,6.1532,-106.9435,71.8962,511.513031,-3.547826,-96,983.1461,5.185555,-0.648194
21/11/2018,08:44.0,112.8999939,-75.69245011,45.38786073,23.9933,-24.7927,70.6245,10.504348,-689.739136,-80.834785,983.193,4.650538,-0.535018
21/11/2018,08:45.0,112.8000031,-75.69250352,45.38787599,3.954,44.9195,70.6039,-219.895645,-14.469565,-80.069565,983.193,4.264708,-0.38583
21/11/2018,08:46.0,112.8000031,-75.69254166,45.38789125,-8.0593,19.7953,69.8014,-107.199997,330.991302,180.939133,983.1532,4.079509,-0.185198
21/11/2018,08:47.0,112.8000031,-75.69259507,45.38791795,4.9441,-129.4098,66.0375,-118.052177,-415.304352,-154.713043,983.2129,4.079509,0
21/11/2018,08:48.0,112.8999939,-75.69263322,45.38793321,-9.9244,123.9808,65.5809,228.660873,-27.060869,70.95652,983.2533,4.110375,0.030866
21/11/2018,08:49.0,112.8999939,-75.69267136,45.3879561,-29.9015,-5.1914,64.2261,-118.121742,-555.756531,-207.234787,983.2546,4.393318,0.282942
21/11/2018,08:50.0,112.8999939,-75.69271714,45.38799043,-9.1104,44.3363,65.6276,124.800003,-215.791306,-32.347828,983.2546,4.655682,0.262365
21/11/2018,08:51.0,112.8999939,-75.69275529,45.38802476,6.9852,45.7004,66.6075,214.817398,-25.530436,-38.052174,983.2225,4.984923,0.329241
21/11/2018,08:52.0,113,-75.6927858,45.38806291,-8.6218,22.4524,67.0778,190.05217,174.330429,71.513046,983.22,5.247288,0.262365
21/11/2018,08:53.0,113.1000061,-75.69282395,45.38810487,-24.9424,12.7278,66.9487,3.269565,-222.817398,-74.991302,983.22,5.40162,0.154332
21/11/2018,08:54.0,113.199997,-75.69285447,45.38815446,-6.1083,-27.9396,67.6356,112,1.669565,-109.634781,983.276,5.53023,0.12861
21/11/2018,08:55.0,113.3000031,-75.69288499,45.38820024,27.4471,-51.4465,66.5973,184.417389,-236.800003,112.556519,983.1628,5.653695,0.123465
21/11/2018,08:56.0,113.3999939,-75.6929155,45.3882422,16.5048,-33.4095,66.9398,99.339134,-430.121735,-182.747833,983.2625,5.65884,0.005145
21/11/2018,08:57.0,113.5,-75.69295365,45.38829179,-30.1258,34.5667,67.249,-261.565216,308.10434,-86.95652,983.2625,5.622829,-0.036011
21/11/2018,08:58.0,113.6000061,-75.6929918,45.38834138,24.3593,-24.559,67.2442,200.834778,-25.043478,-11.756522,983.2396,5.463353,-0.159477
21/11/2018,08:59.0,113.6000061,-75.69302231,45.38837953,-22.2845,135.7018,67.6865,-67.130432,377.321747,244.521744,983.24,5.365609,-0.097743
21/11/2018,09:00.0,113.699997,-75.69306809,45.38842149,-11.235,-12.3315,67.6454,265.321747,-280.06958,1.6,983.24,5.22671,-0.138899
21/11/2018,09:01.0,113.699997,-75.69309861,45.38845582,4.0812,-20.734,66.5271,151.373917,-19.33913,-34.504349,983.2597,5.216422,-0.010289
21/11/2018,09:02.0,113.8000031,-75.69313676,45.38849397,22.8148,-40.6763,65.8297,41.252174,203.756516,65.878258,983.2308,5.134111,-0.082311
21/11/2018,09:03.0,113.8999939,-75.69318253,45.38853593,19.7877,-41.7095,67.2957,327.582611,349.286957,85.634781,983.2308,5.139255,0.005145
21/11/2018,09:04.0,113.8999939,-75.69321305,45.38856645,-12.0168,75.7129,66.3798,-362.852173,-80.626083,30.608696,983.2504,5.139255,0
21/11/2018,09:05.0,114,-75.6932512,45.38860841,-25.5718,-3.2319,65.556,214.539124,131.756516,98.295654,983.2215,5.103245,-0.036011
21/11/2018,09:06.0,114,-75.69328934,45.38864274,-8.8023,78.3413,66.8221,174.469559,-147.339127,-73.808693,983.2215,5.123822,0.020578
21/11/2018,09:07.0,114,-75.69333512,45.38868089,-7.5928,-74.7005,65.7575,-177.94783,436.730438,162.573914,983.2041,5.350176,0.226353
21/11/2018,09:08.0,114,-75.6933809,45.38872285,-11.4849,-120.4304,65.0122,200.13913,204.730438,37.286957,983.2356,5.453064,0.102888
21/11/2018,09:09.0,114,-75.69342667,45.38875718,-7.2481,44.5991,65.5426,366.399994,-131.060867,-11.33913,983.2356,5.61254,0.159476
21/11/2018,09:10.0,114,-75.69347245,45.38879533,-29.3194,52.7422,66.3335,4.452174,-443.96521,-57.04348,983.2356,5.622829,0.010289
21/11/2018,09:11.0,114,-75.69351823,45.38883729,14.3092,-47.2464,64.8339,31.86087,276.03479,126.608696,983.2356,5.581674,-0.041155
21/11/2018,09:12.0,114,-75.69357163,45.38886781,-43.7833,26.2629,64.7723,-300.452179,130.643478,-57.18261,983.2867,5.406765,-0.17491
21/11/2018,09:13.0,114,-75.69361741,45.38890977,-22.56,35.2895,64.5884,96.834785,-483.547821,148.03479,983.2867,5.422198,0.015433
21/11/2018,09:14.0,114.1000061,-75.69367081,45.3889441,-2.1493,24.0277,62.491,75.130432,-512.486938,-91.965218,983.289,5.509652,0.087455
21/11/2018,09:15.0,114.1000061,-75.69371659,45.38897462,7.3531,-54.8352,63.435,145.94783,-36.66087,-14.4,983.2533,5.65884,0.149188
21/11/2018,09:16.0,114.199997,-75.69376237,45.38901658,6.903,47.4054,64.4528,38.330433,628.03479,150.121735,983.2245,5.663985,0.005145
21/11/2018,09:17.0,114.3000031,-75.69380814,45.38905473,-39.5767,14.8792,64.63,277.843475,-756.382629,-91.478264,983.2419,5.555952,-0.108032
21/11/2018,09:18.0,114.5,-75.69385392,45.38908906,-13.015,-122.3791,62.6249,89.669563,352.973907,47.930435,983.1892,5.396475,-0.159477
21/11/2018,09:19.0,114.699997,-75.69389207,45.38913102,4.754,-46.2121,64.1988,578.226074,-156.730438,7.652174,983.1892,5.221566,-0.17491
21/11/2018,09:20.0,114.8000031,-75.69394547,45.38916154,-32.6309,179.2164,65.2946,227.686951,-558.956543,-56.765217,983.2225,5.0981,-0.123465
21/11/2018,09:21.0,114.8000031,-75.69398362,45.38919587,7.2532,-16.8367,63.435,-5.843478,-367.513031,-91.269562,983.1771,4.943768,-0.154332
21/11/2018,09:22.0,114.8000031,-75.69402177,45.38923402,-21.533,116.8581,64.9325,169.94783,-335.234772,-182.399994,983.1771,4.93348,-0.010289
21/11/2018,09:23.0,114.8000031,-75.69405991,45.38926835,8.4693,51.121,64.2566,252.382614,130.295654,133.773911,983.1771,4.938624,0.005145
21/11/2018,09:24.0,114.8000031,-75.69409806,45.38929887,-9.1652,112.0688,63.1281,-66.226089,10.156522,-91.826088,983.1771,4.928335,-0.010289
21/11/2018,09:25.0,114.8999939,-75.69413621,45.3893332,1.1088,45.0453,62.5868,-280.278259,41.113045,-34.017391,983.1771,4.907758,-0.020578
21/11/2018,09:26.0,114.8999939,-75.69418961,45.38936754,-0.1584,45.0558,62.193,482.504333,109.634781,-70.886955,983.2077,4.902613,-0.005145
21/11/2018,09:27.0,115,-75.69422776,45.38939805,-11.6314,-125.1486,62.823,-365.565216,391.513031,148.382614,983.2286,5.020935,0.118321
21/11/2018,09:28.0,115,-75.69426591,45.38943239,-79.5502,-6.7281,62.0302,199.930435,-313.739136,-72.417389,983.2027,5.195844,0.17491
21/11/2018,09:29.0,115.199997,-75.69431931,45.38947053,5.6882,84.2845,60.8252,-15.513043,-786.156494,-16.208696,983.2631,5.489075,0.293231
21/11/2018,09:30.0,115.3000031,-75.69436509,45.38950486,-3.6031,53.5534,60.5725,56.278259,-215.443481,6.608696,983.2145,5.756583,0.267509
21/11/2018,09:31.0,115.3000031,-75.69441849,45.38954301,-13.9305,7.7828,60.4825,200.626083,201.600006,-47.513042,983.216,5.921205,0.164621
21/11/2018,09:32.0,115.3000031,-75.69446427,45.38958497,12.9986,7.3846,64.2959,345.460876,86.469566,69.704346,983.1765,5.895482,-0.025722
21/11/2018,09:33.0,115.3000031,-75.69451005,45.38962693,-24.0321,2.3565,63.9777,-74.713043,-264.765228,-163.408691,983.2185,5.926349,0.030867
21/11/2018,09:34.0,115.3999939,-75.69456345,45.38966508,4.3317,-81.7497,63.8144,29.843479,198.678268,135.930435,983.1978,5.905771,-0.020578
21/11/2018,09:35.0,115.3999939,-75.6946016,45.38970704,-19.5903,40.2741,62.8189,-56.417393,-419.756531,-106.573914,983.2513,5.885193,-0.020578
21/11/2018,09:36.0,115.3999939,-75.694655,45.38974901,-18.4974,42.1622,64.6121,-317.913055,-5.495652,-109.426086,983.2513,5.880049,-0.005144
21/11/2018,09:37.0,115.3000031,-75.69470078,45.3897986,-27.2764,-120.5749,65.9066,-227.686951,352.834778,37.078262,983.2701,5.746295,-0.133755
21/11/2018,09:38.0,115.3000031,-75.69473893,45.38982911,-41.3706,20.5234,67.1853,285.495667,375.234772,223.513046,983.2701,5.638262,-0.108032
21/11/2018,09:39.0,115.3000031,-75.69479233,45.38987108,-0.5462,176.9945,68.4201,-219.478256,255.443481,81.391304,983.2701,5.489075,-0.149188
21/11/2018,09:40.0,115.3000031,-75.69483048,45.38990922,2.8799,-134.5076,68.8449,-393.043488,173.495651,109.356522,983.2701,5.324454,-0.164621
21/11/2018,09:41.0,115.3000031,-75.69487626,45.38994355,-10.1881,44.1578,71.1708,64.834785,-38.469566,266.017395,983.2701,5.298732,-0.025722
21/11/2018,09:42.0,115.3999939,-75.69492966,45.38997789,-7.1701,44.6088,71.4243,-31.582609,455.721741,47.86087,983.2347,5.381042,0.08231
21/11/2018,09:43.0,115.5,-75.69498307,45.3900084,-7.0871,46.559,70.2472,-112.765221,-412.382599,-248.556519,983.2347,5.519941,0.138899
21/11/2018,09:44.0,115.6000061,-75.6950441,45.39003129,-22.9147,-113.5259,75.8424,-421.217377,82.713043,130.295654,983.2347,5.509652,-0.010289
21/11/2018,09:45.0,115.699997,-75.69510514,45.390058,-3.0176,-60.2005,76.4736,-280.973907,-971.686951,-81.460869,983.2277,5.699995,0.190343
21/11/2018,09:46.0,115.699997,-75.6951738,45.39008088,1.1971,-62.8305,74.7449,248,29.07826,15.304348,983.2139,5.602252,-0.097743
21/11/2018,09:47.0,115.8000031,-75.69524247,45.39009996,33.5817,10.988,76.3135,-6.121739,609.391296,-206.747833,983.2219,5.396475,-0.205776
21/11/2018,09:48.0,115.8000031,-75.69531113,45.39011522,2.6831,3.8025,79.886,60.313042,-210.295654,-129.530441,983.2482,5.170122,-0.226353
21/11/2018,09:49.0,115.8000031,-75.69536454,45.39012285,-32.8423,57.1284,80.7539,-372.313049,-303.443481,102.608696,983.2353,4.938624,-0.231498
21/11/2018,09:50.0,115.8999939,-75.6954332,45.39013047,-5.4723,2.454,85.208,263.652161,-778.365234,-39.721741,983.1774,4.974635,0.036011
21/11/2018,09:51.0,116,-75.69550187,45.39013047,19.04,16.5989,93.0848,348.591309,991.513062,86.260872,983.1986,5.200988,0.226353
21/11/2018,09:52.0,116,-75.69557053,45.39013047,-9.9319,62.0165,96.509,227.547821,623.791321,85.495651,983.1986,5.231855,0.030867
21/11/2018,09:53.0,116,-75.6956392,45.39013047,-1.4541,88.095,99.1046,-136.973907,-84.313042,239.165222,983.2455,5.041512,-0.190343
21/11/2018,09:54.0,116.1000061,-75.69570023,45.39012285,-17.9816,-108.2716,101.8301,338.713043,-272.486969,-6.469565,983.2455,4.717415,-0.324097
21/11/2018,09:55.0,116.1000061,-75.69576127,45.39011522,-12.7178,37.6881,109.051,-103.09565,29.426086,242.573914,983.2455,4.485917,-0.231498
21/11/2018,09:56.0,116.1000061,-75.69580704,45.39010759,16.525,32.3522,114.0013,482.434784,-52.591305,32.834782,983.2608,4.357307,-0.12861
21/11/2018,09:57.0,116.1000061,-75.69586808,45.39008851,-17.1658,112.8559,116.8915,-169.460876,176.556519,77.982605,983.2608,4.269852,-0.087455
21/11/2018,09:58.0,116.1000061,-75.69591385,45.39007325,22.9774,39.9431,123.4862,-175.443481,-525.773926,-154.782608,983.2462,4.285285,0.015433
21/11/2018,09:59.0,116.1000061,-75.69595963,45.390058,1.2673,19.5991,128.2757,412.382599,-289.182617,46.191303,983.2017,4.424184,0.138899
21/11/2018,10:00.0,116,-75.69601304,45.39003129,-7.9406,-8.0516,130.5655,-2.226087,189.704346,120.347824,983.2017,4.460195,0.036011
21/11/2018,10:01.0,116,-75.69605881,45.39001603,21.478,-116.4639,131.2734,37.495651,-42.573914,-19.895653,983.2627,4.444762,-0.015433
21/11/2018,10:02.0,115.8999939,-75.69609696,45.38999315,9.5731,44.262,138.6782,15.513043,-134.608688,22.191305,983.2627,4.465339,0.020578
21/11/2018,10:03.0,115.8000031,-75.69615037,45.38995881,-6.3891,44.7006,140.8416,314.991302,108.521736,-40.347828,983.2472,4.37274,-0.092599
21/11/2018,10:04.0,115.6000061,-75.69618088,45.38993593,-9.6142,-68.0713,144.3129,-417.739136,-325.982605,37.147827,983.2642,4.182397,-0.190343
21/11/2018,10:05.0,115.5,-75.6962114,45.38990159,-17.6066,46.6428,145.1067,-234.713043,-211.060867,-18.852175,983.2642,4.192686,0.010289
21/11/2018,10:06.0,115.3000031,-75.69624955,45.38987108,23.6705,-48.7189,148.3206,202.504349,154.434784,181.356522,983.2642,4.336729,0.144044
21/11/2018,10:07.0,115.199997,-75.69627244,45.38983674,10.4157,-46.671,148.2572,-185.808701,-62.330433,-64.834785,983.2642,4.449906,0.113176
21/11/2018,10:08.0,115.1000061,-75.69629532,45.3897986,-28.2717,48.2611,147.1821,17.947826,364.660858,148.800003,983.2642,4.604238,0.154332
21/11/2018,10:09.0,115,-75.69631821,45.38975663,-3.9473,-132.875,145.4375,-246.886963,-42.29565,87.304344,983.307,4.799725,0.195487
21/11/2018,10:10.0,114.8999939,-75.69633347,45.38971467,5.5385,-7.654,147.9769,-21.843479,-87.582611,31.443478,983.3461,4.882035,0.08231
21/11/2018,10:11.0,114.699997,-75.6963411,45.38967653,-37.1502,-131.0171,146.2242,-54.81739,6.608696,40.13913,983.3094,5.108389,0.226354
21/11/2018,10:12.0,114.699997,-75.6963411,45.38962693,-5.8341,74.5309,142.9319,-458.573914,3.478261,193.669571,983.3417,5.561097,0.452707
21/11/2018,10:13.0,114.6000061,-75.6963411,45.38957734,15.3215,0.1081,142.0437,299.89566,-313.043488,-94.608696,983.335,6.09097,0.529873
21/11/2018,10:14.0,114.5,-75.69633347,45.38951249,-26.0843,-117.795,139.316,-384.13913,19.965218,18.643478,983.335,6.682575,0.591606
21/11/2018,10:15.0,114.5,-75.69631821,45.38945527,5.5125,-35.8614,134.6206,343.095642,-286.191315,291.89566,983.2933,7.392503,0.709927
21/11/2018,10:16.0,114.6000061,-75.6962877,45.38939042,4.2511,-85.429,124.9694,203.547821,-2.365217,210.08696,983.2933,8.02012,0.627617
21/11/2018,10:17.0,114.699997,-75.69624955,45.38932557,-42.5191,5.727,120.9059,-8.139131,-12.243478,2.226087,983.2933,8.174452,0.154332
21/11/2018,10:18.0,114.8000031,-75.69618851,45.38926072,7.6568,-80.6591,119.2664,197.286957,-135.026093,-32.695652,983.4013,8.14873,-0.025722
21/11/2018,10:19.0,114.8999939,-75.69611985,45.38921113,-22.525,40.8288,120.4828,-98.921738,169.878265,-27.269566,983.4013,8.123008,-0.025722
21/11/2018,10:20.0,115.1000061,-75.6960283,45.38916154,32.9699,36.0251,120.9191,-22.26087,169.669571,14.817391,983.4013,8.416239,0.293231
21/11/2018,10:21.0,115.199997,-75.69592911,45.38913102,11.784,13.9664,121.3547,-6.956522,28.869566,66.504349,983.3798,8.642592,0.226353
21/11/2018,10:22.0,115.3000031,-75.69582993,45.38908906,35.3616,-26.4677,122.2757,-9.947826,216.13913,74.434784,983.3504,8.848368,0.205777
21/11/2018,10:23.0,115.5,-75.69572312,45.38905473,-5.5559,-72.0656,122.8923,276.939117,55.026089,96,983.3633,9.028422,0.180053
21/11/2018,10:24.0,115.5,-75.69562394,45.38902421,4.6715,62.6822,123.3503,143.582611,35.965218,-112.90435,983.3633,9.151888,0.123466
21/11/2018,10:25.0,115.6000061,-75.6955095,45.38898225,1.086,-28.2818,122.1502,-42.156521,-323.200012,179.199997,983.3633,9.25992,0.108032
21/11/2018,10:26.0,115.699997,-75.69540269,45.38895936,2.8519,-44.9291,114.2387,-79.304344,137.321732,132.869568,983.3225,9.347375,0.087455
21/11/2018,10:27.0,115.699997,-75.69528824,45.38892503,13.0601,-22.3111,105.7341,16.765217,215.026093,193.878265,983.3225,9.30622,-0.041155
21/11/2018,10:28.0,115.8000031,-75.6951738,45.38890214,-14.7818,61.9627,102.3665,333.356537,-80.13913,82.295654,983.3225,9.028422,-0.277798
21/11/2018,10:29.0,115.8000031,-75.69505936,45.38889451,13.1157,-17.3517,102.7673,128.765213,194.921738,-3.478261,983.3143,8.766058,-0.262364
21/11/2018,10:30.0,115.8999939,-75.69494492,45.38890214,-16.4618,65.7597,103.6673,181.008698,112.695656,57.599998,983.3143,8.858656,0.092598
21/11/2018,10:31.0,116,-75.69482285,45.3889174,-3.1804,52.0967,103.9815,-103.026085,-46.330433,-18.782608,983.3143,9.043855,0.185199
21/11/2018,10:32.0,116.1000061,-75.69470841,45.38895173,1.9003,45.0244,103.6066,-34.29565,243.199997,92.034782,983.3143,9.162176,0.118321
21/11/2018,10:33.0,116.1000061,-75.6946016,45.38897462,-13.5481,105.7115,103.4835,-399.582611,-72.208694,-50.991302,983.3143,9.151888,-0.010288
21/11/2018,10:34.0,116.1000061,-75.69448716,45.38901658,-19.4068,-68.8949,100.6244,-105.18261,324.939117,297.530426,983.3198,9.17761,0.025722
21/11/2018,10:35.0,116.1000061,-75.69438035,45.3890471,-13.5724,104.31,90.469,285.008698,-327.026093,192.069565,983.3186,9.198187,0.020577
21/11/2018,10:36.0,116.199997,-75.69428116,45.38908906,-7.0283,0.2226,81.41,-52.38261,-206.886963,73.530434,983.3274,9.095299,-0.102887
21/11/2018,10:37.0,116.199997,-75.69418198,45.38913865,-35.005,54.8978,80.3961,-112.973915,184.765213,35.965218,983.2553,8.755769,-0.33953
21/11/2018,10:38.0,116.3000031,-75.69409806,45.38918824,-35.1582,47.0694,79.8114,50.782608,111.930435,121.18261,983.2808,8.138441,-0.617328
21/11/2018,10:39.0,116.3999939,-75.69404465,45.38925309,-43.7665,-22.6202,78.369,30.4,164.243484,288.556519,983.2031,7.783477,-0.354963
21/11/2018,10:40.0,116.3000031,-75.69399888,45.38931031,0.3574,-47.4005,67.4881,112.486954,-45.008698,346.852173,983.2358,7.675445,-0.108032
21/11/2018,10:41.0,116.199997,-75.69396836,45.38937516,-15.7431,56.289,66.7164,265.182617,255.582611,153.043472,983.3114,7.371925,-0.30352
21/11/2018,10:42.0,116.199997,-75.6939531,45.38944001,-26.045,-59.5679,71.7108,-205.495651,-59.130436,-50.086956,983.3114,6.471655,-0.90027
21/11/2018,10:43.0,116.1000061,-75.6939531,45.38948961,-0.5142,-49.8515,71.0233,-191.582611,-132.17392,-71.026085,983.2759,5.350176,-1.121479
21/11/2018,10:44.0,116,-75.69396073,45.38953538,17.0534,-49.5257,70.9308,-118.95652,185.391312,-175.165222,983.2714,4.362451,-0.987725
21/11/2018,10:45.0,116,-75.69398362,45.38956971,-21.1131,-25.8517,69.9976,-85.147827,-181.147827,44.730434,983.2714,3.64738,-0.715071
21/11/2018,10:46.0,115.8999939,-75.69400651,45.3895926,3.532,-37.5327,69.8424,114.365219,-66.434784,34.991302,983.2714,3.307849,-0.339531
21/11/2018,10:47.0,115.8999939,-75.69404465,45.38961168,-32.8955,55.133,68.2901,-172.313049,304.904358,123.756523,983.2762,3.153517,-0.154332
21/11/2018,10:48.0,115.8000031,-75.69407517,45.38962693,19.7986,-120.5585,68.3372,39.165218,36.799999,177.391312,983.2762,2.963175,-0.190343
21/11/2018,10:49.0,115.8000031,-75.69410569,45.38964219,1.0615,97.6593,70.2328,-494.817383,166.260864,242.852173,983.3017,3.096929,0.133754
21/11/2018,10:50.0,115.699997,-75.69414384,45.38964982,-44.8411,-149.9084,70.9249,155.199997,-408.20871,-17.460869,983.3017,3.374726,0.277798
21/11/2018,10:51.0,115.699997,-75.69419724,45.38965745,11.4816,-131.1097,70.5991,-510.539124,115.547829,85.078262,983.3051,3.565069,0.190343
21/11/2018,10:52.0,115.699997,-75.69423539,45.38966508,-25.403,118.1051,72.0013,180.243484,-920.626099,162.434784,983.3051,3.575358,0.010289
21/11/2018,10:53.0,115.6000061,-75.69428879,45.38967653,6.7839,-13.8047,71.4151,300.313049,166.678268,39.930435,983.3051,3.703968,0.12861
21/11/2018,10:54.0,115.6000061,-75.69433457,45.38968416,12.989,-103.2597,69.7122,516.799988,383.234772,66.365219,983.3051,3.745123,0.041155
21/11/2018,10:55.0,115.5,-75.69437272,45.38969941,-16.9634,47.6898,71.565,498.504333,-376.765228,-53.356522,983.3086,3.652524,-0.092599
21/11/2018,10:56.0,115.3999939,-75.69441849,45.38970704,-20.0994,9.5785,73.5131,-53.982609,-374.052185,170.504349,983.3086,3.457037,-0.195487
21/11/2018,10:57.0,115.3000031,-75.69446427,45.3897223,-21.0023,61.403,74.5175,129.878265,266.365204,175.652176,983.3468,3.354149,-0.102888
21/11/2018,10:58.0,115.199997,-75.69449479,45.38973375,-18.9279,63.862,79.6952,114.156525,-242.295654,66.504349,983.3338,3.323282,-0.030866
21/11/2018,10:59.0,115.199997,-75.69454056,45.38974138,-25.4936,-52.0283,81.7406,179.895645,2.573913,124.591301,983.3338,3.318138,-0.005145
21/11/2018,11:00.0,115.199997,-75.69457871,45.38974901,-12.8493,43.6359,84.1045,279.443481,193.321732,152.13913,983.3747,3.400448,0.082311
21/11/2018,11:01.0,115.3000031,-75.69462449,45.38975663,-12.6858,64.0925,92.9273,187.130432,-66.643478,50.573914,983.3747,3.549636,0.149188
21/11/2018,11:02.0,115.3000031,-75.69467789,45.38975663,-22.7032,44.8902,97.2532,-342.956512,-16.208696,-32.834782,983.3784,3.806856,0.25722
21/11/2018,11:03.0,115.199997,-75.6947313,45.38976426,-28.3863,53.707,99.7066,55.930435,-197.356522,25.669565,983.3372,3.806856,0
21/11/2018,11:04.0,115.199997,-75.6947847,45.38975663,-9.4996,71.7044,106.4915,86.052177,-64.069565,47.165218,983.3739,3.791423,-0.015433
21/11/2018,11:05.0,115.199997,-75.69483048,45.38975663,-22.7948,40.7317,110.2605,-83.478264,-242.08696,-144.347824,983.3934,3.786278,-0.005144
21/11/2018,11:06.0,115.3000031,-75.69487626,45.38974901,2.5417,-42.9166,117.1981,-0.834783,-214.469559,225.878265,983.3934,3.889166,0.102888
21/11/2018,11:07.0,115.3999939,-75.69492966,45.38973375,-22.5473,22.4453,116.7127,-140.17392,434.713043,-13.217391,983.3262,3.873733,-0.015433
21/11/2018,11:08.0,115.3999939,-75.69497544,45.38971467,55.552,-8.1483,124.5923,131.269562,424.626099,76.521736,983.3262,3.992055,0.118321
21/11/2018,11:09.0,115.3999939,-75.69502885,45.38969941,-16.1797,-65.0864,126.9368,304.347839,-50.29565,222.956528,983.3686,4.321296,0.329241
21/11/2018,11:10.0,115.3999939,-75.69507462,45.38967653,-17.0744,54.7867,135.2178,66.852173,51.060871,108.730438,983.3686,4.485917,0.164621
21/11/2018,11:11.0,115.3999939,-75.6951204,45.38965745,-37.1793,50.3243,132.7094,107.130432,-174.05217,126.469566,983.3686,4.671115,0.185198
21/11/2018,11:12.0,115.3000031,-75.6951738,45.38962693,-10.5368,55.9519,140.5632,294.191315,23.095652,250.643478,983.357,4.856313,0.185198
21/11/2018,11:13.0,115.199997,-75.69521195,45.3895926,-2.9714,27.8102,139.5323,-111.513046,-289.252167,-245.217392,983.3386,4.71227,-0.144043
21/11/2018,11:14.0,115.1000061,-75.69526536,45.38956208,-24.5093,64.0815,137.1705,-167.304352,-373.495667,-117.356522,983.3941,4.686548,-0.025722
21/11/2018,11:15.0,115,-75.69529587,45.38953538,-5.4488,44.7972,138.6329,251.060867,578.295654,166.469559,983.3921,4.681404,-0.005144
21/11/2018,11:16.0,115,-75.69533402,45.38949724,7.8006,-44.4722,138.7565,-175.095657,421.704346,34.643478,983.3925,4.928335,0.246931
21/11/2018,11:17.0,114.8999939,-75.69536454,45.3894629,6.4432,-48.7723,141.4015,318.399994,787.96521,3.130435,983.3764,5.056945,0.12861
21/11/2018,11:18.0,114.8999939,-75.69540269,45.38941331,23.8841,-40.2823,142.7532,76.034782,-356.730438,41.321739,983.3495,5.27301,0.216065
21/11/2018,11:19.0,114.8000031,-75.69542557,45.38937516,-3.6225,47.3245,141.4235,-114.156525,-660.382629,125.91304,983.3493,5.468497,0.195487
21/11/2018,11:20.0,114.699997,-75.69544846,45.38932557,-4.0451,61.753,139.7245,140.104355,341.147827,243.617386,983.3358,5.730862,0.262365
21/11/2018,11:21.0,114.699997,-75.69547135,45.38927598,-24.6433,7.6841,137.8362,186.08696,187.617386,281.739136,983.3358,5.874905,0.144043
21/11/2018,11:22.0,114.699997,-75.69548661,45.38922639,17.739,-47.2564,136.7053,251.686951,470.539124,154.782608,983.3358,6.04467,0.169765
21/11/2018,11:23.0,114.6000061,-75.6955095,45.38916917,1.5308,31.3944,134.3624,108.243477,413.495667,205.356522,983.3558,6.34819,0.30352
21/11/2018,11:24.0,114.6000061,-75.6955095,45.38911195,-23.1068,-44.1326,133.394,-81.599998,292.313049,139.478256,983.3558,6.847197,0.499007
21/11/2018,11:25.0,114.5,-75.69550187,45.3890471,-9.0401,112.3771,129.06,266.226074,13.147826,115.686958,983.3573,7.305048,0.457851
21/11/2018,11:26.0,114.3999939,-75.69547135,45.38898225,9.712,43.4109,128.5546,211.895645,335.443481,173.843475,983.3693,7.680589,0.375541
21/11/2018,11:27.0,114.3000031,-75.6954332,45.38890977,19.3479,41.8994,127.2611,-34.991302,-56.486958,84.591301,983.3481,8.092141,0.411552
21/11/2018,11:28.0,114.199997,-75.69538743,45.38884492,-15.299,39.1852,126.0134,-36.591305,-144,-19.965218,983.4046,8.447105,0.354964
21/11/2018,11:29.0,114.3000031,-75.69532639,45.38878007,-65.009,159.202,125.8083,-77.426086,-95.234779,-157.426086,983.4028,8.760914,0.313809
21/11/2018,11:30.0,114.3000031,-75.69525773,45.38872285,-3.6541,38.9193,121.373,302.747833,110.747826,-143.930435,983.4008,8.904956,0.144043
21/11/2018,11:31.0,114.3999939,-75.69516617,45.38866563,-38.982,-130.8936,118.3662,-35.895653,150.191299,135.095657,984.429,8.992411,0.087455
21/11/2018,11:32.0,114.6000061,-75.69507462,45.38861604,-12.9746,-51.7963,113.4193,178.017395,-290.156525,49.808697,984.429,9.105588,0.113177
21/11/2018,11:33.0,114.699997,-75.69496781,45.38857789,-16.2424,-129.4137,110.6357,-351.582611,-129.808701,5.286956,984.429,9.08501,-0.020578
21/11/2018,11:34.0,114.8999939,-75.69485337,45.38855119,-21.0343,-113.3504,107.3135,-278.608704,53.843479,99.339134,984.472,9.08501,0
21/11/2018,11:35.0,114.8999939,-75.6947313,45.38853593,15.2445,-26.4546,103.8896,-116.660866,-25.73913,18.434782,984.86,9.08501,0
21/11/2018,11:36.0,115.1000061,-75.69460923,45.38853593,5.8137,30.9113,100.9138,135.513046,7.234783,55.791306,984.86,9.172465,0.087455
21/11/2018,11:37.0,115.3000031,-75.69449479,45.38855119,6.9361,44.6374,97.1707,-29.426086,212.869568,207.234787,984.86,9.270209,0.097744
21/11/2018,11:38.0,115.5,-75.69437272,45.38857789,-23.8762,63.7838,91.8524,-13.773913,162.226089,185.460876,983.3597,9.162176,-0.108033
21/11/2018,11:39.0,115.6000061,-75.69426591,45.38861604,-34.0791,54.1381,89.4702,3.895652,468.730438,226.226089,983.3705,9.0027,-0.159476
21/11/2018,11:40.0,115.699997,-75.69418198,45.38866563,-27.85,46.2708,85.8189,230.330429,292.730438,186.782608,983.3705,8.997555,-0.005145
21/11/2018,11:41.0,115.8999939,-75.69409806,45.38873048,-7.2587,30.8525,84.1274,-61.217392,147.199997,145.391312,983.4007,8.997555,0
21/11/2018,11:42.0,116,-75.69403702,45.38879533,7.1382,-97.1809,81.9059,-83.269562,319.095642,150.956528,983.4007,9.018134,0.020578
21/11/2018,11:43.0,116.1000061,-75.69398362,45.38886781,-8.6465,44.4072,78.5643,65.04348,-273.739136,-5.634783,983.4007,8.997555,-0.020578
21/11/2018,11:44.0,116.1000061,-75.69394547,45.38895173,-11.2882,-101.2931,64.9078,-19.060869,-413.356537,-124.591301,983.4007,8.678603,-0.318952
21/11/2018,11:45.0,116,-75.69393021,45.38902421,-6.2995,-134.7856,73.8427,180.313049,71.513046,71.86087,983.3049,8.421383,-0.25722
21/11/2018,11:46.0,116,-75.69392258,45.38910432,4.1171,-44.8523,72.6195,241.669571,318.052185,146.852173,983.3536,8.195029,-0.226354
21/11/2018,11:47.0,115.8999939,-75.69392258,45.3891768,-48.1701,38.8184,70.7908,-171.895645,350.817383,245.773911,983.3161,7.860643,-0.334386
21/11/2018,11:48.0,115.699997,-75.69393784,45.38924547,7.6449,-44.493,68.57,107.617393,78.400002,11.617392,983.3206,7.351348,-0.509295
21/11/2018,11:49.0,115.6000061,-75.69396073,45.38931031,-15.2299,38.469,68.4446,259.060883,344.973907,127.373917,983.3206,6.754597,-0.59675
21/11/2018,11:50.0,115.6000061,-75.69398362,45.38936754,-10.6927,64.7872,69.4068,-173.356522,201.252167,141.147827,983.3427,6.250446,-0.504151
21/11/2018,11:51.0,115.5,-75.69401414,45.38941331,-24.1937,40.2128,70.3821,146.852173,-362.782623,211.478256,983.3416,5.756583,-0.493862
21/11/2018,11:52.0,115.3999939,-75.69405991,45.38945527,-15.8857,46.9293,71.6278,-59.686958,329.043488,217.252167,983.3369,5.35532,-0.401263
21/11/2018,11:53.0,115.3999939,-75.69409806,45.38948961,-8.9128,-21.0084,74.4275,-241.669571,-609.530457,-8.139131,983.3369,4.93348,-0.421841
21/11/2018,11:54.0,115.3999939,-75.69414384,45.38952012,1.2671,45.042,77.1523,227.686951,191.721741,3.2,983.3369,4.557938,-0.375541
21/11/2018,11:55.0,115.5,-75.69419724,45.38953538,-55.1883,33.5122,83.9041,70.260872,265.669556,165.078262,983.3536,4.321296,-0.236642
21/11/2018,11:56.0,115.5,-75.69425065,45.38954301,-10.454,-47.4872,91.2386,337.947815,197.495651,97.460869,983.3321,4.172108,-0.149188
21/11/2018,11:57.0,115.6000061,-75.69430405,45.38955446,-28.3325,50.0431,103.3328,-102.260872,-491.96521,-86.121742,983.3321,4.166964,-0.005144
21/11/2018,11:58.0,115.6000061,-75.69435746,45.38955446,6.3448,30.3758,112.9436,-157.217392,-196.939133,-146.991302,983.3321,4.130953,-0.036011
21/11/2018,11:59.0,115.699997,-75.69441086,45.38954301,-30.0252,45.69,120.8112,-29.008696,-84.869568,23.304348,983.3321,4.105231,-0.025722
21/11/2018,12:00.0,115.699997,-75.69446427,45.38953538,3.4872,-113.9114,129.0412,255.373917,4.104348,-23.513044,983.2857,4.120665,0.015433
21/11/2018,12:01.0,115.6000061,-75.69450242,45.38952012,-22.6764,-31.4015,135,159.791306,-204.521744,-4.452174,983.332,4.017776,-0.102888
21/11/2018,12:02.0,115.5,-75.69454819,45.38949724,-15.1956,-127.5754,133.8171,-34.29565,194.08696,54.678261,983.2869,4.038354,0.020578
21/11/2018,12:03.0,115.3999939,-75.69458634,45.3894629,-9.9673,-44.1416,133.0694,-79.443481,164.03479,200,983.2869,4.187542,0.149188
21/11/2018,12:04.0,115.3000031,-75.69460923,45.38943239,-16.6677,65.0255,135.7892,46.400002,-412.10434,-33.391304,983.2869,4.496205,0.308664
21/11/2018,12:05.0,115.199997,-75.69464738,45.38939042,-40.6442,139.3557,137.5819,160.765213,189.286957,144.347824,983.3043,4.799725,0.30352
21/11/2018,12:06.0,115,-75.69467026,45.38934083,63.4591,-156.9818,140.8752,-70.121742,136.278259,-4.66087,983.3391,5.087812,0.288087
21/11/2018,12:07.0,115,-75.69468552,45.38929124,-37.9424,132.6468,141.7269,-143.443481,272.904358,121.113045,983.3515,5.381042,0.293231
21/11/2018,12:08.0,114.8999939,-75.69470078,45.38924547,32.3561,-56.3283,141.6521,52.799999,-369.739136,-40.765217,983.3515,5.74115,0.360108
21/11/2018,12:09.0,114.8000031,-75.69470841,45.38919587,-23.6844,51.4454,142.3396,-218.852173,-240.208694,-77.426086,983.3728,6.060103,0.318953
21/11/2018,12:10.0,114.699997,-75.69472367,45.38913865,-15.0051,52.5389,142.696,60.52174,-22.26087,5.913043,983.3776,6.307035,0.246931
21/11/2018,12:11.0,114.699997,-75.69472367,45.38908143,-5.6553,-55.6399,141.154,153.600006,-162.156525,-117.147827,983.35,6.404778,0.097743
21/11/2018,12:12.0,114.6000061,-75.6947313,45.38902421,5.6996,-153.3321,143.2613,207.582611,-190.399994,2.504348,983.35,6.435645,0.030867
21/11/2018,12:13.0,114.5,-75.6947313,45.38895936,12.6117,69.9551,140.4561,-136.486954,-269.704346,-59.895653,984.6,6.775175,0.33953
21/11/2018,12:14.0,114.3999939,-75.6947313,45.38889451,-10.086,-22.3297,137.8321,-176,-442.086945,-109.704346,984.6,7.068405,0.293231
21/11/2018,12:15.0,114.3999939,-75.69471604,45.38882966,23.8167,-61.9058,137.9834,-257.947815,-113.04348,118.608696,983.3464,7.41308,0.344675
